File: XRD of Go Ce5-Refluxometry method-11-05-2022.csv
Calc. data,,Go Ce5,,Individual peaks,,Peak bar 1,,,,,,,,5,-574.33
2θ - °,Intensity - cps,2θ - °,Intensity - cps,2θ - °,Intensity - cps,2θ - °,Y,Intensity - cps,,,,,,5.05,-191.5905
5,1.46E-13,5,-574.33,5,1.46E-13,28.74943,0,0,,,,,,5.1,-135.5277
5.15,1.47E-13,5.15,23.85839,5.15,1.47E-13,33.01003,0,168.7434,,,,,,5.25,-204.0664
5.3,1.49E-13,5.3,-144.7105,5.3,1.49E-13,56.36108,0,0,,,,,,5.4,17.30434
5.45,1.51E-13,5.45,-66.70328,5.45,1.51E-13,76.7978,0,148.8011,,,,,,5.55,-28.08191
5.6,1.53E-13,5.6,-92.11958,5.6,1.53E-13,,,,,,,,,5.7,-93.55827
5.75,1.55E-13,5.75,-210.9593,5.75,1.55E-13,,,,,,,,,5.85,-69.12449
5.9,1.57E-13,5.9,-23.22205,5.9,1.57E-13,,,,,,,,,6,-11.44703
6.05,1.59E-13,6.05,-25.57443,6.05,1.59E-13,,,,,,,,,6.15,-20.52568
6.2,1.61E-13,6.2,-81.34951,6.2,1.61E-13,,,,,,,,,6.3,80.30647
6.35,1.64E-13,6.35,76.11961,6.35,1.64E-13,,,,,,,,,6.45,11.04961
6.5,1.66E-13,6.5,10.16648,6.5,1.66E-13,,,,,,,,,6.6,-154.9627
6.65,1.68E-13,6.65,0.7913186,6.65,1.68E-13,,,,,,,,,6.75,-7.730179
6.8,1.70E-13,6.8,-48.67232,6.8,1.70E-13,,,,,,,,,6.9,212.7473
6.95,1.73E-13,6.95,175.1091,6.95,1.73E-13,,,,,,,,,7.05,173.1367
7.1,1.75E-13,7.1,5.469189,7.1,1.75E-13,,,,,,,,,7.2,-86.56178
7.25,1.78E-13,7.25,39.07478,7.25,1.78E-13,,,,,,,,,7.35,196.9854
7.4,1.80E-13,7.4,62.59278,7.4,1.80E-13,,,,,,,,,7.5,60.44511
7.55,1.83E-13,7.55,-23.9766,7.55,1.83E-13,,,,,,,,,7.65,93.81761
7.7,1.85E-13,7.7,82.70021,7.7,1.85E-13,,,,,,,,,7.8,-19.56356
7.85,1.88E-13,7.85,-20.70992,7.85,1.88E-13,,,,,,,,,7.95,173.6351
8,1.91E-13,8,-137.5401,8,1.91E-13,,,,,,,,,8.1,53.41397
8.15,1.93E-13,8.15,-14.45674,8.15,1.93E-13,,,,,,,,,8.25,13.10644
8.3,1.96E-13,8.3,81.87367,8.3,1.96E-13,,,,,,,,,8.4,172.7128
8.45,1.99E-13,8.45,164.7847,8.45,1.99E-13,,,,,,,,,8.55,-34.43341
8.6,2.02E-13,8.6,154.2766,8.6,2.02E-13,,,,,,,,,8.7,-8.331967
8.75,2.05E-13,8.75,87.01618,8.75,2.05E-13,,,,,,,,,8.85,121.0173
8.9,2.08E-13,8.9,-60.32961,8.9,2.08E-13,,,,,,,,,9,50.28143
9.05,2.11E-13,9.05,115.5728,9.05,2.11E-13,,,,,,,,,9.15,252.7938
9.2,2.15E-13,9.2,84.72356,9.2,2.15E-13,,,,,,,,,9.3,38.55477
9.35,2.18E-13,9.35,140.4563,9.35,2.18E-13,,,,,,,,,9.45,27.56447
9.5,2.21E-13,9.5,212.7712,9.5,2.21E-13,,,,,,,,,9.6,-16.84352
9.65,2.25E-13,9.65,8.335111,9.65,2.25E-13,,,,,,,,,9.75,198.6644
9.8,2.28E-13,9.8,140.4817,9.8,2.28E-13,,,,,,,,,9.9,107.4217
9.95,2.32E-13,9.95,209.211,9.95,2.32E-13,,,,,,,,,10.05,29.4286
10.1,2.36E-13,10.1,31.19013,10.1,2.36E-13,,,,,,,,,10.2,31.35207
10.25,2.40E-13,10.25,-63.58083,10.25,2.40E-13,,,,,,,,,10.35,66.52563
10.4,2.44E-13,10.4,268.2317,10.4,2.44E-13,,,,,,,,,10.5,-18.38384
10.55,0.1652384,10.55,-10.03874,10.55,2.48E-13,,,,,,,,,10.65,109.9572
10.7,0.2484405,10.7,168.2748,10.7,2.52E-13,,,,,,,,,10.8,151.549
10.85,0.2500784,10.85,-23.49425,10.85,2.56E-13,,,,,,,,,10.95,-10.27488
11,0.2517326,11,204.6544,11,2.60E-13,,,,,,,,,11.1,131.1524
11.15,0.2534032,11.15,66.05441,11.15,2.65E-13,,,,,,,,,11.25,215.8311
11.3,0.2550905,11.3,-72.62749,11.3,2.69E-13,,,,,,,,,11.4,37.09478
11.45,0.2567947,11.45,-11.391,11.45,2.74E-13,,,,,,,,,11.55,-38.3897
11.6,0.258516,11.6,43.0974,11.6,2.79E-13,,,,,,,,,11.7,39.37789
11.75,0.2602547,11.75,-75.82871,11.75,2.84E-13,,,,,,,,,11.85,157.0644
11.9,0.262011,11.9,-48.16913,11.9,2.89E-13,,,,,,,,,12,64.67017
12.05,0.2637851,12.05,89.40971,12.05,2.94E-13,,,,,,,,,12.15,-21.13803
12.2,0.2655773,12.2,176.908,12.2,2.99E-13,,,,,,,,,12.3,-10.35994
12.35,0.2673878,12.35,-29.00729,12.35,3.05E-13,,,,,,,,,12.45,57.00465
12.5,0.269217,12.5,-38.33603,12.5,3.10E-13,,,,,,,,,12.6,-85.71069
12.65,0.2710649,12.65,58.92204,12.65,3.16E-13,,,,,,,,,12.75,-61.83907
12.8,0.2729319,12.8,-97.23287,12.8,3.22E-13,,,,,,,,,12.9,108.6197
12.95,0.2748183,12.95,-90.13387,12.95,3.28E-13,,,,,,,,,13.05,-91.00077
13.1,0.4841853,13.1,90.21927,13.1,3.34E-13,,,,,,,,,13.2,145.9664
13.25,0.5911928,13.25,110.4934,13.25,3.41E-13,,,,,,,,,13.35,-33.81201
13.4,0.5958939,13.4,24.02217,13.4,3.47E-13,,,,,,,,,13.5,-37.00232
13.55,0.7425721,13.55,17.47237,13.55,3.54E-13,,,,,,,,,13.65,-30.27102
13.7,0.820614,13.7,30.84425,13.7,3.61E-13,,,,,,,,,13.8,46.3821
13.85,0.8288646,13.85,-29.1953,13.85,3.69E-13,,,,,,,,,13.95,32.95729
14,0.8372552,14,30.68728,14,3.76E-13,,,,,,,,,14.1,-33.87859
14.15,0.8457893,14.15,-136.1745,14.15,3.84E-13,,,,,,,,,14.25,-80.79198
14.3,0.8544706,14.3,-103.1136,14.3,3.92E-13,,,,,,,,,14.4,52.21735
14.45,0.8633028,14.45,-123.4633,14.45,4.00E-13,,,,,,,,,14.55,78.48295
14.6,0.87229,14.6,-27.22338,14.6,4.09E-13,,,,,,,,,14.7,44.67171
14.75,0.8814362,14.75,-11.06019,14.75,4.17E-13,,,,,,,,,14.85,-22.54949
14.9,0.8907457,14.9,-28.30688,14.9,4.26E-13,,,,,,,,,15,-69.84709
15.05,0.9002228,15.05,-35.6299,15.05,4.36E-13,,,,,,,,,15.15,142.7791
15.2,0.9098721,15.2,-29.6957,15.2,4.45E-13,,,,,,,,,15.3,41.99605
15.35,0.9196982,15.35,-30.50404,15.35,4.55E-13,,,,,,,,,15.45,-42.1961
15.5,0.929706,15.5,1.945281,15.5,4.66E-13,,,,,,,,,15.6,-26.46377
15.65,0.9399008,15.65,-39.01418,15.65,4.76E-13,,,,,,,,,15.75,39.19327
15.8,0.9502876,15.8,19.95115,15.8,4.87E-13,,,,,,,,,15.9,1.4419
15.95,0.960872,15.95,-111.1585,15.95,4.99E-13,,,,,,,,,16.05,13.61567
16.1,0.9716597,16.1,-82.343,16.1,5.11E-13,,,,,,,,,16.2,-134.2852
16.25,0.9826565,16.25,-56.93536,16.25,5.23E-13,,,,,,,,,16.35,4.406201
16.4,0.9938687,16.4,-88.26872,16.4,5.35E-13,,,,,,,,,16.5,-33.64327
16.55,1.005303,16.55,100.3238,16.55,5.49E-13,,,,,,,,,16.65,1.566626
16.7,1.016965,16.7,-81.15759,16.7,5.62E-13,,,,,,,,,16.8,-123.2972
16.85,1.028863,16.85,7.287354,16.85,5.76E-13,,,,,,,,,16.95,11.76538
17,1.041003,17,5.658838,17,5.91E-13,,,,,,,,,17.1,-136.5786
17.15,1.053393,17.15,-86.04292,17.15,6.06E-13,,,,,,,,,17.25,-31.66244
17.3,1.066042,17.3,-114.4843,17.3,6.22E-13,,,,,,,,,17.4,-80.15242
17.45,1.078956,17.45,17.00143,17.45,6.39E-13,,,,,,,,,17.55,37.95161
17.6,1.092145,17.6,25.0813,17.6,6.56E-13,,,,,,,,,17.7,-64.01678
17.75,1.105618,17.75,-20.24452,17.75,6.74E-13,,,,,,,,,17.85,-39.39071
17.9,1.119384,17.9,124.3575,17.9,6.92E-13,,,,,,,,,18,-94.83662
18.05,1.133452,18.05,68.88767,18.05,7.12E-13,,,,,,,,,18.15,-100.3543
18.2,1.147834,18.2,6.679456,18.2,7.32E-13,,,,,,,,,18.3,7.389816
18.35,1.162539,18.35,-12.26689,18.35,7.53E-13,,,,,,,,,18.45,-101.6041
18.5,1.177579,18.5,-44.61782,18.5,7.75E-13,,,,,,,,,18.6,-40.66903
18.65,1.192965,18.65,26.29355,18.65,7.98E-13,,,,,,,,,18.75,16.86178
18.8,1.20871,18.8,37.13412,18.8,8.22E-13,,,,,,,,,18.9,-109.0114
18.95,1.224827,18.95,37.90411,18.95,8.47E-13,,,,,,,,,19.05,128.3783
19.1,1.241329,19.1,51.93706,19.1,8.73E-13,,,,,,,,,19.2,32.36449
19.25,1.25823,19.25,-87.43346,19.25,9.01E-13,,,,,,,,,19.35,42.94733
19.4,1.275546,19.4,79.79276,19.4,9.30E-13,,,,,,,,,19.5,80.12706
19.55,1.293291,19.55,-13.05072,19.55,9.60E-13,,,,,,,,,19.65,53.9039
19.7,1.311483,19.7,24.03632,19.7,9.92E-13,,,,,,,,,19.8,57.61141
19.85,1.330139,19.85,1.054098,19.85,1.02E-12,,,,,,,,,19.95,7.916472
20,1.349277,20,41.33617,20,1.06E-12,,,,,,,,,20.1,51.48598
20.15,1.368916,20.15,-31.7839,20.15,1.10E-12,,,,,,,,,20.25,34.98681
20.3,1.389076,20.3,1.69409,20.3,1.14E-12,,,,,,,,,20.4,-4.914137
20.45,1.40978,20.45,11.77037,20.45,1.18E-12,,,,,,,,,20.55,-14.88331
20.6,1.431049,20.6,11.7785,20.6,1.22E-12,,,,,,,,,20.7,11.74617
20.75,1.452908,20.75,145.052,20.75,1.26E-12,,,,,,,,,20.85,104.9745
20.9,1.475382,20.9,-41.74216,20.9,1.31E-12,,,,,,,,,21,78.13532
21.05,1.498497,21.05,-41.93717,21.05,1.36E-12,,,,,,,,,21.15,17.89544
21.2,1.522283,21.2,11.13388,21.2,1.42E-12,,,,,,,,,21.3,-39.07824
21.35,1.546769,21.35,-152.5288,21.35,1.47E-12,,,,,,,,,21.45,-42.78548
21.5,1.571988,21.5,-49.59162,21.5,1.54E-12,,,,,,,,,21.6,-36.55941
21.65,1.597972,21.65,-100.0544,21.65,1.60E-12,,,,,,,,,21.75,-127.0665
21.8,1.624759,21.8,-33.91689,21.8,1.67E-12,,,,,,,,,21.9,39.0269
21.95,1.652387,21.95,-1.178879,21.95,1.74E-12,,,,,,,,,22.05,-44.94575
22.1,1.680897,22.1,-115.1735,22.1,1.82E-12,,,,,,,,,22.2,71.0158
22.25,1.710333,22.25,-55.90049,22.25,1.90E-12,,,,,,,,,22.35,-49.75489
22.4,1.74074,22.4,109.9737,22.4,1.99E-12,,,,,,,,,22.5,-63.92428
22.55,1.772169,22.55,-7.550782,22.55,2.09E-12,,,,,,,,,22.65,8.507865
22.7,1.804673,22.7,-58.47363,22.7,2.19E-12,,,,,,,,,22.8,-92.45824
22.85,1.83831,22.85,43.87201,22.85,2.30E-12,,,,,,,,,22.95,66.51096
23,1.873139,23,-57.18031,23,2.42E-12,,,,,,,,,23.1,15.41569
23.15,1.909227,23.15,-38.29702,23.15,2.54E-12,,,,,,,,,23.25,-19.07717
23.3,1.946645,23.3,-6.144586,23.3,2.68E-12,,,,,,,,,23.4,9.699272
23.45,1.985467,23.45,-87.38943,23.45,2.83E-12,,,,,,,,,23.55,-34.92143
23.6,2.025775,23.6,17.96864,23.6,2.99E-12,,,,,,,,,23.7,43.72761
23.75,2.067658,23.75,-33.40347,23.75,3.17E-12,,,,,,,,,23.85,-117.6867
23.9,2.11121,23.9,1.827795,23.9,3.36E-12,,,,,,,,,24,17.50247
24.05,2.156533,24.05,66.99599,24.05,3.57E-12,,,,,,,,,24.15,-20.7046
24.2,2.203744,24.2,15.43465,24.2,3.75E-06,,,,,,,,,24.3,81.02562
24.35,2.252963,24.35,-39.52265,24.35,1.28E-05,,,,,,,,,24.45,-87.30664
24.5,2.304336,24.5,-41.20902,24.5,4.20E-05,,,,,,,,,24.6,-59.03451
24.65,2.358046,24.65,-42.95759,24.65,0.000132372,,,,,,,,,24.75,15.84225
24.8,2.414364,24.8,38.5652,24.8,0.000400141,,,,,,,,,24.9,-26.00948
24.95,2.473775,24.95,-36.64042,24.95,0.001160984,,,,,,,,,25.05,38.74386
25.1,2.537282,25.1,-91.90757,25.1,0.003233225,,,,,,,,,25.2,56.76915
25.25,2.607111,25.25,-47.23603,25.25,0.008642568,,,,,,,,,25.35,1.399937
25.4,2.688271,25.4,-5.958908,25.4,0.02217416,,,,,,,,,25.5,-67.36354
25.55,2.791782,25.55,-44.74265,25.55,0.05460712,,,,,,,,,25.65,57.14559
25.7,2.941048,25.7,-10.25371,25.7,0.1290772,,,,,,,,,25.8,-41.73911
25.85,3.183633,25.85,-39.15852,25.85,0.292852,,,,,,,,,25.95,-17.35075
26,3.611674,26,65.20979,26,0.6377429,,,,,,,,,26.1,-9.689113
26.15,4.394819,26.15,-10.48188,26.15,1.333037,,,,,,,,,26.25,34.57935
26.3,5.829207,26.3,-22.89997,26.3,2.674473,,,,,,,,,26.4,-1.211793
26.45,8.403552,26.45,21.28906,26.45,5.150315,,,,,,,,,26.55,22.93767
26.6,12.87762,26.6,-24.58123,26.6,9.519837,,,,,,,,,26.7,50.36129
26.75,20.35878,26.75,-23.84395,26.75,16.88984,,,,,,,,,26.85,-22.27404
26.9,32.34953,26.9,40.16778,26.9,28.76222,,,,,,,,,27,15.03189
27.05,50.72686,27.05,70.78753,27.05,47.01323,,,,,,,,,27.15,92.27932
27.2,77.60835,27.2,48.0155,27.2,73.75968,,,,,,,,,27.3,9.468459
27.35,115.0691,27.35,78.51859,27.35,111.0758,,,,,,,,,27.45,213.2662
27.5,164.7029,27.5,132.297,27.5,160.5543,,,,,,,,,27.6,280.3394
27.65,227.0703,27.65,82.68434,27.65,222.7546,,,,,,,,,27.75,210.6884
27.8,301.1386,27.8,359.6808,27.8,296.6427,,,,,,,,,27.9,464.3132
27.95,383.869,27.95,319.9532,27.95,379.1783,,,,,,,,,28.05,434.5475
28.1,470.1198,28.1,553.5019,28.1,465.2179,,,,,,,,,28.2,674.7249
28.25,552.9952,28.25,616.9937,28.25,547.8638,,,,,,,,,28.35,671.5122
28.4,624.6694,28.4,637.0954,28.4,619.2875,,,,,,,,,28.5,621.5764
28.55,677.5732,28.55,703.8074,28.55,671.9175,,,,,,,,,28.65,751.5842
28.7,705.7075,28.7,613.7965,28.7,699.7513,,,,,,,,,28.8,691.5359
28.85,698.6166,28.85,593.7296,28.85,692.3295,,,,,,,,,28.95,671.4318
29,630.9371,29,726.9402,29,624.2841,,,,,,,,,29.1,774.6053
29.15,523.6525,29.15,636.762,29.15,516.5933,,,,,,,,,29.25,441.0568
29.3,407.5443,29.3,443.195,29.3,400.0322,,,,,,,,,29.4,320.7864
29.45,302.5604,29.45,262.9063,29.45,294.5409,,,,,,,,,29.55,290.4611
29.6,217.9356,29.6,192.5626,29.6,209.3449,,,,,,,,,29.7,86.7476
29.75,155.5335,29.75,165.4977,29.75,146.296,,,,,,,,,29.85,216.3129
29.9,112.7777,29.9,131.7115,29.9,102.8037,,,,,,,,,30,119.1573
30.05,85.11279,30.05,87.87119,30.05,74.29451,,,,,,,,,30.15,8.614269
30.2,67.85812,30.2,107.3102,30.2,56.06536,,,,,,,,,30.3,151.3507
30.35,57.24179,30.35,16.69533,30.35,44.31549,,,,,,,,,30.45,77.36677
30.5,50.68671,30.5,79.36025,30.5,36.43066,,,,,,,,,30.6,29.9961
30.65,46.64516,30.65,101.9718,30.65,30.81448,,,,,,,,,30.75,79.23888
30.8,44.28402,30.8,64.53025,30.8,26.56925,,,,,,,,,30.9,-8.237985
30.95,43.20465,30.95,37.03577,30.95,23.20925,,,,,,,,,31.05,60.89905
31.1,43.25958,31.1,-0.511408,31.1,20.46735,,,,,,,,,31.2,3.316866
31.25,44.45886,31.25,-28.11106,31.25,18.18605,,,,,,,,,31.35,19.01569
31.4,46.93936,31.4,4.237045,31.4,16.26317,,,,,,,,,31.5,41.32908
31.55,50.97309,31.55,39.86645,31.55,14.62653,,,,,,,,,31.65,73.59058
31.7,56.98624,31.7,38.77737,31.7,13.22222,,,,,,,,,31.8,65.80043
31.85,65.51162,31.85,17.63671,31.85,12.00864,,,,,,,,,31.95,34.6255
32,76.88411,32,36.44468,32,10.95309,,,,,,,,,32.1,106.7327
32.15,90.48772,32.15,128.5348,32.15,10.02954,,,,,,,,,32.25,245.4555
32.3,104.0821,32.3,260.5741,32.3,9.217058,,,,,,,,,32.4,230.7943
32.45,115.5429,32.45,159.2293,32.45,8.498668,,,,,,,,,32.55,52.7491
32.6,129.6742,32.6,204.5006,32.6,7.860492,,,,,,,,,32.7,101.3203
32.75,163.9585,32.75,203.0551,32.75,7.291101,,,,,,,,,32.85,126.508
32.9,225.3972,32.9,228.2261,32.9,6.781018,,,,,,,,,33,278.3125
33.05,259.9058,33.05,143.3474,33.05,6.322333,,,,,,,,,33.15,280.0673
33.2,253.3946,33.2,248.419,33.2,5.908405,,,,,,,,,33.3,308.4393
33.35,234.0511,33.35,266.7746,33.35,5.533625,,,,,,,,,33.45,140.0955
33.5,205.834,33.5,225.0811,33.5,5.193233,,,,,,,,,33.6,171.7026
33.65,172.4567,33.65,116.6719,33.65,4.883165,,,,,,,,,33.75,113.2609
33.8,137.8141,33.8,134.8807,33.8,4.599941,,,,,,,,,33.9,118.104
33.95,105.2491,33.95,179.7076,33.95,4.340561,,,,,,,,,34.05,142.8988
34.1,77.07759,34.1,34.48631,34.1,4.102432,,,,,,,,,34.2,34.31205
34.25,54.44156,34.25,32.55026,34.25,3.883304,,,,,,,,,34.35,39.01075
34.4,37.44793,34.4,77.23305,34.4,3.681214,,,,,,,,,34.5,126.9951
34.55,25.47914,34.55,75.20155,34.55,3.494447,,,,,,,,,34.65,51.59866
34.7,17.54585,34.7,-3.543996,34.7,3.321496,,,,,,,,,34.8,29.48831
34.85,12.58371,34.85,-12.33672,34.85,3.161037,,,,,,,,,34.95,-26.00241
35,9.646855,35,-21.17639,35,3.011897,,,,,,,,,35.1,8.460074
35.15,7.996793,35.15,-70.0628,35.15,2.87304,,,,,,,,,35.25,39.54264
35.3,7.112888,35.3,-72.32904,35.3,2.743543,,,,,,,,,35.4,-29.42115
35.45,6.658798,35.45,-44.64157,35.45,2.622587,,,,,,,,,35.55,18.23558
35.6,6.433588,35.6,-13.66684,35.6,2.509438,,,,,,,,,35.7,-7.486942
35.75,6.325557,35.75,10.59538,35.75,2.40344,,,,,,,,,35.85,-19.92183
35.9,6.276653,35.9,34.81198,35.9,2.304005,,,,,,,,,36,-35.73553
36.05,6.258542,36.05,8.983173,36.05,2.210602,,,,,,,,,36.15,15.07219
36.2,6.258174,36.2,3.109182,36.2,2.122754,,,,,,,,,36.3,-7.498472
36.35,6.269833,36.35,70.52356,36.35,2.04003,,,,,,,,,36.45,63.21939
36.5,6.291108,36.5,-25.44013,36.5,1.962041,,,,,,,,,36.6,-29.44068
36.65,6.320999,36.65,25.21832,36.65,1.888432,,,,,,,,,36.75,11.18822
36.8,6.359086,36.8,-4.167532,36.8,1.818881,,,,,,,,,36.9,51.77296
36.95,6.40519,36.95,43.06921,36.95,1.753097,,,,,,,,,37.05,5.647098
37.1,6.459243,37.1,66.92876,37.1,1.690813,,,,,,,,,37.2,6.144196
37.25,6.521236,37.25,4.077998,37.25,1.631785,,,,,,,,,37.35,-3.402196
37.4,6.591211,37.4,44.51716,37.4,1.57579,,,,,,,,,37.5,-12.99186
37.55,6.669245,37.55,-55.08688,37.55,1.522624,,,,,,,,,37.65,34.0421
37.7,6.755455,37.7,78.59945,37.7,1.472101,,,,,,,,,37.8,-15.63344
37.85,6.849998,37.85,22.24302,37.85,1.424047,,,,,,,,,37.95,24.64842
38,6.953067,38,59.17739,38,1.378306,,,,,,,,,38.1,-21.77877
38.15,7.064898,38.15,-7.263886,38.15,1.334731,,,,,,,,,38.25,11.75187
38.3,7.185767,38.3,-80.41392,38.3,1.293188,,,,,,,,,38.4,-4.759436
38.45,7.315992,38.45,16.39418,38.45,1.253552,,,,,,,,,38.55,-17.97913
38.6,7.45594,38.6,-26.83937,38.6,1.215708,,,,,,,,,38.7,38.75968
38.75,7.606024,38.75,49.88565,38.75,1.179551,,,,,,,,,38.85,45.4572
38.9,7.76671,38.9,-0.09720423,38.9,1.144982,,,,,,,,,39,25.447
39.05,7.938519,39.05,-23.45438,39.05,1.111909,,,,,,,,,39.15,-7.937377
39.2,8.122035,39.2,-16.85232,39.2,1.080246,,,,,,,,,39.3,8.63763
39.35,8.317906,39.35,-0.290801,39.35,1.049916,,,,,,,,,39.45,35.17224
39.5,8.526852,39.5,-23.76961,39.5,1.020844,,,,,,,,,39.6,28.33334
39.65,8.749671,39.65,-27.28852,39.65,0.9929625,,,,,,,,,39.75,1.45448
39.8,8.987251,39.8,22.48602,39.8,0.9662064,,,,,,,,,39.9,14.53589
39.95,9.240576,39.95,2.220899,39.95,0.9405164,,,,,,,,,40.05,17.57778
40.1,9.510735,40.1,-41.417,40.1,0.9158365,,,,,,,,,40.2,17.24705
40.25,9.798937,40.25,-1.760776,40.25,0.8921148,,,,,,,,,40.35,0.210579
40.4,10.10653,40.4,34.52311,40.4,0.869302,,,,,,,,,40.5,43.13526
40.55,10.435,40.55,10.76822,40.55,0.8473526,,,,,,,,,40.65,49.35464
40.7,10.78602,40.7,-19.69189,40.7,0.8262235,,,,,,,,,40.8,52.20227
40.85,11.16144,40.85,-13.52368,40.85,0.8058743,,,,,,,,,40.95,31.67839
41,11.56332,41,-0.726909,41,0.7862671,,,,,,,,,41.1,24.44987
41.15,11.99399,41.15,75.3653,41.15,0.7673664,,,,,,,,,41.25,27.18361
41.3,12.45603,41.3,31.41983,41.3,0.7491387,,,,,,,,,41.4,73.21314
41.45,12.95237,41.45,-5.89642,41.45,0.7315522,,,,,,,,,41.55,39.20538
41.6,13.48629,41.6,66.7501,41.6,0.7145775,,,,,,,,,41.7,38.49387
41.75,14.0615,41.75,29.3596,41.75,0.6981864,,,,,,,,,41.85,54.41216
41.9,14.6822,41.9,21.93232,41.9,0.6823525,,,,,,,,,42,50.2938
42.05,15.35315,42.05,-15.53153,42.05,0.6670508,,,,,,,,,42.15,12.80569
42.2,16.07978,42.2,50.3016,42.2,0.6522579,,,,,,,,,42.3,-4.718618
42.35,16.86831,42.35,-27.23473,42.35,0.6379513,,,,,,,,,42.45,4.387759
42.5,17.72584,42.5,28.52637,42.5,0.62411,,,,,,,,,42.6,36.79171
42.65,18.66057,42.65,50.91845,42.65,0.610714,,,,,,,,,42.75,-14.17321
42.8,19.68196,42.8,36.6084,42.8,0.5977446,,,,,,,,,42.9,-15.17345
42.95,20.80098,42.95,68.92977,42.95,0.5851837,,,,,,,,,43.05,3.791219
43.1,22.03042,43.1,51.21613,43.1,0.5730144,,,,,,,,,43.2,16.05434
43.25,23.38527,43.25,56.80101,43.25,0.5612205,,,,,,,,,43.35,28.28281
43.4,24.88312,43.4,19.01797,43.4,0.5497869,,,,,,,,,43.5,33.81018
43.55,26.54482,43.55,97.86725,43.55,0.538699,,,,,,,,,43.65,69.30334
43.7,28.39511,43.7,10.01571,43.7,0.527943,,,,,,,,,43.8,18.09584
43.85,30.4636,43.85,118.7969,43.85,0.5175058,,,,,,,,,43.95,33.52123
44,32.78593,44,60.87778,44,0.5073749,,,,,,,,,44.1,32.24641
44.15,35.40526,44.15,36.25849,44.15,0.4975384,,,,,,,,,44.25,77.60492
44.3,38.3742,44.3,51.60595,44.3,0.4879852,,,,,,,,,44.4,59.59699
44.45,41.75741,44.45,63.58703,44.45,0.4787043,,,,,,,,,44.55,28.22285
44.6,45.63482,44.6,82.20197,44.6,0.4696856,,,,,,,,,44.7,40.14936
44.75,50.10594,44.75,47.45098,44.75,0.4609193,,,,,,,,,44.85,38.7101
44.9,55.29513,44.9,52.66762,44.9,0.452396,,,,,,,,,45,43.90528
45.05,61.35802,45.05,64.51878,45.05,0.4441068,,,,,,,,,45.15,79.06846
45.2,68.48853,45.2,89.67133,45.2,0.4360434,,,,,,,,,45.3,20.86652
45.35,76.92577,45.35,-15.20782,45.35,0.4281974,,,,,,,,,45.45,75.96635
45.5,86.95995,45.5,73.21487,45.5,0.4205613,,,,,,,,,45.6,87.70151
45.65,98.93737,45.65,111.6063,45.65,0.4131275,,,,,,,,,45.75,199.4055
45.8,113.2692,45.8,119.9667,45.8,0.405889,,,,,,,,,45.9,161.0787
45.95,130.4562,45.95,124.9629,45.95,0.398839,,,,,,,,,46.05,152.7211
46.1,151.1542,46.1,169.9285,46.1,0.3919711,,,,,,,,,46.2,160.9998
46.25,176.3112,46.25,214.8637,46.25,0.3852789,,,,,,,,,46.35,229.2482
46.4,207.3967,46.4,123.1021,46.4,0.3787567,,,,,,,,,46.5,200.8
46.55,246.6782,46.55,244.6439,46.55,0.3723986,,,,,,,,,46.65,295.6553
46.7,297.3392,46.7,289.4893,46.7,0.3661992,,,,,,,,,46.8,380.481
46.85,362.8973,46.85,344.3052,46.85,0.3601533,,,,,,,,,46.95,461.944
47,444.888,47,422.4252,47,0.3542558,,,,,,,,,47.1,530.0446
47.15,537.7552,47.15,460.5161,47.15,0.348502,,,,,,,,,47.25,581.4495
47.3,622.7202,47.3,591.9115,47.3,0.3428872,,,,,,,,,47.4,689.4925
47.45,669.8386,47.45,689.9449,47.45,0.3374069,,,,,,,,,47.55,680.8403
47.6,667.3349,47.6,664.6166,47.6,0.3320569,,,,,,,,,47.7,582.1599
47.75,631.1431,47.75,679.2602,47.75,0.3268332,,,,,,,,,47.85,543.4514
47.9,574.0096,47.9,633.8758,47.9,0.3217317,,,,,,,,,48,524.7151
48.05,507.1899,48.05,518.4636,48.05,0.3167486,,,,,,,,,48.15,429.2847
48.2,439.9581,48.2,459.6906,48.2,0.3118805,,,,,,,,,48.3,433.8268
48.35,377.9576,48.35,327.557,48.35,0.3071237,,,,,,,,,48.45,301.6751
48.5,323.662,48.5,278.7296,48.5,0.3024748,,,,,,,,,48.6,309.4965
48.65,277.5247,48.65,256.5421,48.65,0.2979307,,,,,,,,,48.75,233.9578
48.8,238.9724,48.8,314.3279,48.8,0.2934881,,,,,,,,,48.9,325.0594
48.95,207.0311,48.95,308.754,48.95,0.2891442,,,,,,,,,49.05,239.468
49.1,180.6555,49.1,146.4872,49.1,0.284896,,,,,,,,,49.2,150.5172
49.25,158.8771,49.25,127.5278,49.25,0.2807407,,,,,,,,,49.35,128.2073
49.4,140.8571,49.4,111.876,49.4,0.2766756,,,,,,,,,49.5,139.2051
49.55,125.8959,49.55,109.532,49.55,0.2726982,,,,,,,,,49.65,130.1775
49.7,113.4218,49.7,150.496,49.7,0.2688059,,,,,,,,,49.8,124.4581
49.85,102.9746,49.85,104.7683,49.85,0.2649963,,,,,,,,,49.95,45.38047
50,94.18692,50,62.34908,50,0.2612671,,,,,,,,,50.1,82.94476
50.15,86.76724,50.15,89.90518,50.15,0.257616,,,,,,,,,50.25,63.81789
50.3,80.48464,50.3,64.10354,50.3,0.254041,,,,,,,,,50.4,61.33342
50.45,75.15634,50.45,101.611,50.45,0.2505398,,,,,,,,,50.55,115.4916
50.6,70.63744,50.6,49.09453,50.6,0.2471105,,,,,,,,,50.7,32.95921
50.75,66.81281,50.75,76.55428,50.75,0.2437511,,,,,,,,,50.85,130.4032
50.9,63.59077,50.9,93.99049,50.9,0.2404598,,,,,,,,,51,71.15723
51.05,60.89834,51.05,68.07005,51.05,0.2372346,,,,,,,,,51.15,68.5547
51.2,58.67755,51.2,52.12653,51.2,0.2340739,,,,,,,,,51.3,79.26256
51.35,56.88272,51.35,76.16012,51.35,0.2309759,,,,,,,,,51.45,79.94769
51.5,55.47846,51.5,73.50439,51.5,0.227939,,,,,,,,,51.6,80.61033
51.65,54.43813,51.65,70.82624,51.65,0.2249616,,,,,,,,,51.75,57.91734
51.8,53.74281,51.8,71.45921,51.8,0.2220421,,,,,,,,,51.9,68.53561
51.95,53.38054,51.95,58.73684,51.95,0.2191791,,,,,,,,,52.05,49.13205
52.1,53.34591,52.1,39.32605,52.1,0.2163711,,,,,,,,,52.2,36.37353
52.25,53.63986,52.25,79.8937,52.25,0.2136167,,,,,,,,,52.35,46.92694
52.4,54.2697,52.4,57.1067,52.4,0.2109145,,,,,,,,,52.5,67.45918
52.55,55.24943,52.55,110.9652,52.55,0.2082633,,,,,,,,,52.65,47.97045
52.7,56.60022,52.7,58.13625,52.7,0.2056618,,,,,,,,,52.8,25.12765
52.85,58.35118,52.85,61.95325,52.85,0.2031087,,,,,,,,,52.95,38.931
53,60.54028,53,65.74981,53,0.2006028,,,,,,,,,53.1,89.38071
53.15,63.21555,53.15,89.52615,53.15,0.198143,,,,,,,,,53.25,99.81036
53.3,66.43628,53.3,76.61581,53.3,0.1957282,,,,,,,,,53.4,76.88681
53.45,70.27441,53.45,50.35236,53.45,0.1933572,,,,,,,,,53.55,33.94363
53.6,74.8157,53.6,77.40269,53.6,0.1910291,,,,,,,,,53.7,87.6477
53.75,80.16104,53.75,107.767,53.75,0.1887427,,,,,,,,,53.85,77.99924
53.9,86.42764,53.9,114.7789,53.9,0.1864972,,,,,,,,,54,58.33182
54.05,93.75121,54.05,75.10516,54.05,0.1842914,,,,,,,,,54.15,85.31231
54.2,102.2902,54.2,95.41279,54.2,0.1821246,,,,,,,,,54.3,125.6076
54.35,112.2343,54.35,102.3686,54.35,0.1799957,,,,,,,,,54.45,112.5512
54.5,123.8206,54.5,112.6395,54.5,0.177904,,,,,,,,,54.6,169.4768
54.65,137.3604,54.65,142.8925,54.65,0.1758485,,,,,,,,,54.75,186.3845
54.8,153.2789,54.8,133.1276,54.8,0.1738284,,,,,,,,,54.9,113.2746
54.95,172.1653,54.95,140.0118,54.95,0.1718429,,,,,,,,,55.05,170.1472
55.1,194.8228,55.1,153.5453,55.1,0.1698912,,,,,,,,,55.2,217.0026
55.25,222.2881,55.25,247.0617,55.25,0.1679726,,,,,,,,,55.35,260.5077
55.4,255.762,55.4,250.5612,55.4,0.1660863,,,,,,,,,55.5,340.6627
55.55,296.3506,55.55,267.3773,55.55,0.1642316,,,,,,,,,55.65,290.8011
55.7,344.471,55.7,330.8437,55.7,0.1624078,,,,,,,,,55.8,397.59
55.85,398.8075,55.85,437.6271,55.85,0.1606142,,,,,,,,,55.95,411.0293
56,454.9724,56,384.3945,56,0.1588501,,,,,,,,,56.1,627.7862
56.15,504.7236,56.15,531.1461,56.15,0.157115,,,,,,,,,56.25,524.5273
56.3,537.335,56.3,527.8821,56.3,0.1554081,,,,,,,,,56.4,581.2531
56.45,544.1391,56.45,584.6027,56.45,0.1537288,,,,,,,,,56.55,574.6302
56.6,523.9133,56.6,624.6415,56.6,0.1520767,,,,,,,,,56.7,454.6591
56.75,482.8589,56.75,537.9988,56.75,0.150451,,,,,,,,,56.85,544.6732
56.9,431.2331,56.9,471.3413,56.9,0.1488512,,,,,,,,,57,461.3394
57.05,379.0007,57.05,404.6693,57.05,0.1472768,,,,,,,,,57.15,367.9912
57.2,332.7964,57.2,334.6498,57.2,0.1457273,,,,,,,,,57.3,314.629
57.35,295.3538,57.35,247.9496,57.35,0.1442021,,,,,,,,,57.45,247.9195
57.5,266.5066,57.5,261.2355,57.5,0.1427007,,,,,,,,,57.6,171.1963
57.65,244.5637,57.65,171.1745,57.65,0.1412226,,,,,,,,,57.75,181.1264
57.8,227.4022,57.8,154.4335,57.8,0.1397674,,,,,,,,,57.9,114.3766
57.95,213.1163,57.95,181.0126,57.95,0.1383346,,,,,,,,,58.05,187.6137
58.1,200.2988,58.1,190.9121,58.1,0.1369236,,,,,,,,,58.2,214.1714
58.25,188.0815,58.25,140.799,58.25,0.1355342,,,,,,,,,58.35,137.3832
58.4,175.9154,58.4,194.0066,58.4,0,,,,,,,,,58.5,73.91603
58.55,163.9747,58.55,140.5354,13.6,0.1426519,,,,,,,,,58.65,230.4367
58.7,152.2152,58.7,150.3854,13.75,0.2162624,,,,,,,,,58.8,173.6121
58.85,140.8079,58.85,160.2236,13.9,0.2196644,,,,,,,,,58.95,113.4426
59,129.9298,59,130.0501,14.05,0.2231472,,,,,,,,,59.1,139.9282
59.15,119.7226,59.15,166.532,14.2,0.2267136,,,,,,,,,59.25,133.0692
59.3,110.2761,59.3,159.6693,14.35,0.2303661,,,,,,,,,59.4,156.1992
59.45,101.6282,59.45,159.4624,14.5,0.2341076,,,,,,,,,59.55,189.3185
59.6,93.77394,59.6,165.9114,14.65,0.237941,,,,,,,,,59.7,135.7605
59.75,86.67742,59.75,172.3499,14.8,0.2418693,,,,,,,,,59.85,85.52543
59.9,80.28401,59.9,115.4448,14.95,0.2458957,,,,,,,,,60,125.2803
60.05,74.52988,60.05,75.19631,15.1,0.2500234,,,,,,,,,60.15,131.6918
60.2,69.34908,60.2,144.938,15.25,0.2542559,,,,,,,,,60.3,71.42705
60.35,64.67802,60.35,61.33667,15.4,0.2585968,,,,,,,,,60.45,84.48611
60.5,60.458,60.5,104.3926,15.55,0.2630498,,,,,,,,,60.6,0.8692718
60.65,56.63628,60.65,44.10608,15.7,0.2676189,,,,,,,,,60.75,103.9101
60.8,53.16629,60.8,87.14391,15.85,0.272308,,,,,,,,,60.9,23.6087
60.95,50.00731,60.95,63.50633,16,0.2771213,,,,,,,,,61.05,49.96542
61.1,47.1239,61.1,36.52691,16.15,0.2820635,,,,,,,,,61.2,42.98044
61.25,44.48531,61.25,12.87251,16.3,0.287139,,,,,,,,,61.35,65.98731
61.4,42.0648,61.4,55.87672,16.45,0.2923527,,,,,,,,,61.5,38.98625
61.55,39.83912,61.55,32.2064,16.6,0.2977097,,,,,,,,,61.65,38.64415
61.7,37.78798,61.7,11.86178,16.75,0.3032152,,,,,,,,,61.8,21.6279
61.85,35.89362,61.85,61.50975,16.9,0.3088749,,,,,,,,,61.95,47.93772
62,34.1405,62,17.81719,17.05,0.3146945,,,,,,,,,62.1,80.90716
62.15,32.51491,62.15,30.78433,17.2,0.3206801,,,,,,,,,62.25,40.53644
62.3,31.00476,62.3,30.41139,17.35,0.326838,,,,,,,,,62.4,16.82579
62.45,29.59936,62.45,16.69859,17.5,0.3331751,,,,,,,,,62.55,36.44209
62.6,28.28921,62.6,46.31281,17.65,0.3396982,,,,,,,,,62.7,29.38556
62.75,27.06587,62.75,-0.745727,17.8,0.3464147,,,,,,,,,62.85,-1.010244
62.9,25.92181,62.9,-31.14346,17.95,0.3533324,,,,,,,,,63,5.254903
63.05,24.85029,63.05,8.453163,18.1,0.3604593,,,,,,,,,63.15,21.51455
63.2,23.84528,63.2,-21.95564,18.25,0.367804,,,,,,,,,63.3,21.10226
63.35,22.90134,63.35,4.297023,18.4,0.3753754,,,,,,,,,63.45,-9.315096
63.5,22.01361,63.5,3.878035,18.55,0.383183,,,,,,,,,63.6,3.596051
63.65,21.17767,63.65,-23.21238,18.7,0.3912367,,,,,,,,,63.75,-6.83075
63.8,20.38955,63.8,-10.30734,18.85,0.3995469,,,,,,,,,63.9,12.73806
63.95,19.64564,63.95,19.26005,19,0.4081247,,,,,,,,,64.05,2.302688
64.1,18.94266,64.1,12.15668,19.15,0.4169816,,,,,,,,,64.2,-21.46996
64.25,18.27764,64.25,-1.617244,19.3,0.4261299,,,,,,,,,64.35,11.42032
64.4,17.64787,64.4,4.605178,19.45,0.4355825,,,,,,,,,64.5,-9.026241
64.55,17.05089,64.55,-12.50917,19.6,0.4453531,,,,,,,,,64.65,-26.14276
64.7,16.48443,64.7,7.039934,19.75,0.4554561,,,,,,,,,64.8,13.40433
64.85,15.94642,64.85,-3.413957,19.9,0.4659067,,,,,,,,,64.95,-30.38477
65,15.43498,65,-43.87062,20.05,0.476721,,,,,,,,,65.1,15.8235
65.15,14.94836,65.15,-20.99651,20.2,0.4879162,,,,,,,,,65.25,72.02937
65.3,14.48497,65.3,5.208611,20.35,0.4995103,,,,,,,,,65.4,61.56639
65.45,14.04333,65.45,8.078284,20.5,0.5115225,,,,,,,,,65.55,-5.56522
65.6,13.62209,65.6,-22.38727,20.65,0.5239731,,,,,,,,,65.7,13.96809
65.75,13.22,65.75,7.145514,20.8,0.5368837,,,,,,,,,65.85,26.83322
65.9,12.83589,65.9,40.01018,20.95,0.5502773,,,,,,,,,66,-26.96963
66.05,12.46871,66.05,-7.126384,21.1,0.5641782,,,,,,,,,66.15,-0.7735546
66.2,12.11745,66.2,2.402713,21.25,0.5786124,,,,,,,,,66.3,35.42166
66.35,11.78121,66.35,18.59769,21.4,0.5936075,,,,,,,,,66.45,21.61624
66.5,11.45911,66.5,-1.874562,21.55,0.609193,,,,,,,,,66.6,24.47706
66.65,11.15038,66.65,-5.680493,21.7,0.6254001,,,,,,,,,66.75,-29.32897
66.8,10.85428,66.8,-12.81988,21.85,0.6422625,,,,,,,,,66.9,0.1983473
66.95,10.5701,66.95,-3.292502,22,0.6598159,,,,,,,,,67.05,-30.27409
67.1,10.29722,67.1,32.90186,22.15,0.6780986,,,,,,,,,67.2,-27.41272
67.25,10.03504,67.25,-30.90324,22.3,0.6971514,,,,,,,,,67.35,32.11599
67.4,9.782994,67.4,-18.04091,22.45,0.7170184,,,,,,,,,67.5,-28.35438
67.55,9.540561,67.55,28.15574,22.6,0.7377464,,,,,,,,,67.65,-15.49029
67.7,9.30725,67.7,44.35358,22.75,0.759386,,,,,,,,,67.8,54.04181
67.85,9.082605,67.85,3.886184,22.9,0.7819914,,,,,,,,,67.95,16.90882
68,8.866197,68,20.0871,23.05,0.8056209,,,,,,,,,68.1,46.44428
68.15,8.65762,68.15,-17.04346,23.2,0.8303372,,,,,,,,,68.25,-20.68491
68.3,8.456497,68.3,75.82807,23.35,0.8562081,,,,,,,,,68.4,-1.145195
68.45,8.262472,68.45,28.70191,23.5,0.8833066,,,,,,,,,68.55,31.7303
68.6,8.075211,68.6,34.91161,23.65,0.9117113,,,,,,,,,68.7,31.27514
68.75,7.894396,68.75,14.45739,23.8,0.9415078,,,,,,,,,68.85,40.82288
68.9,7.719733,68.9,87.33947,23.95,0.9727883,,,,,,,,,69,57.04039
69.05,7.550941,69.05,63.55807,24.1,1.005653,,,,,,,,,69.15,53.26125
69.2,7.387755,69.2,146.4468,24.25,1.040211,,,,,,,,,69.3,102.819
69.35,7.229929,69.35,119.3391,24.4,1.07658,,,,,,,,,69.45,122.3805
69.5,7.077225,69.5,145.5686,24.55,1.114888,,,,,,,,,69.6,101.946
69.65,6.92942,69.65,78.46881,24.7,1.155277,,,,,,,,,69.75,111.5158
69.8,6.786306,69.8,78.04002,24.85,1.1979,,,,,,,,,69.9,74.42332
69.95,6.647683,69.95,60.94907,25,1.242923,,,,,,,,,70.05,57.3355
70.1,6.513361,70.1,53.86286,25.15,1.290532,,,,,,,,,70.2,6.919233
70.25,6.383162,70.25,16.7816,25.3,1.340926,,,,,,,,,70.35,39.8414
70.4,6.256917,70.4,-6.961142,25.45,1.394329,,,,,,,,,70.5,-0.5644296
70.55,6.134466,70.55,-17.36515,25.6,1.450983,,,,,,,,,70.65,25.70195
70.7,6.015655,70.7,28.90312,25.75,1.511159,,,,,,,,,70.8,-4.692575
70.85,5.900338,70.85,-24.82276,25.9,1.575154,,,,,,,,,70.95,28.25222
71,5.78838,71,-21.87592,26.05,1.643297,,,,,,,,,71.1,-8.796767
71.15,5.679648,71.15,17.74388,26.2,1.715955,,,,,,,,,71.25,50.82734
71.3,5.574018,71.3,17.37017,26.35,1.793534,,,,,,,,,71.4,17.12476
71.45,5.471373,71.45,-26.33014,26.5,1.87649,,,,,,,,,71.55,3.429053
71.6,5.371597,71.6,3.309827,26.65,1.96533,,,,,,,,,71.7,-33.5929
71.75,5.274585,71.75,2.956959,26.8,2.060624,,,,,,,,,71.85,-13.94086
71.9,5.180233,71.9,-44.05519,26.95,2.163011,,,,,,,,,72,-20.94796
72.05,5.088443,72.05,-24.39306,27.1,2.273211,,,,,,,,,72.15,-7.947308
72.2,4.999124,72.2,31.94356,27.25,2.39204,,,,,,,,,72.3,-34.93868
72.35,4.912184,72.35,18.28823,27.4,2.52042,,,,,,,,,72.45,14.74482
72.5,4.827541,72.5,-5.358825,27.55,2.659402,,,,,,,,,72.6,74.43673
72.65,4.745113,72.65,21.00261,27.7,2.810184,,,,,,,,,72.75,17.47061
72.8,4.664829,72.8,14.03942,27.85,2.974138,,,,,,,,,72.9,17.18002
72.95,4.586627,72.95,10.4185,28,3.152841,,,,,,,,,73.05,60.23185
73.1,4.510478,73.1,26.80673,28.15,3.348113,,,,,,,,,73.2,-23.37369
73.25,4.436433,73.25,-10.12899,28.3,3.562062,,,,,,,,,73.35,-26.96971
73.4,4.364755,73.4,2.944878,28.45,3.797142,,,,,,,,,73.5,-57.22266
73.55,4.296222,73.55,16.02857,28.6,4.056223,,,,,,,,,73.65,-20.79897
73.7,4.232834,73.7,-44.21104,28.75,4.342679,,,,,,,,,73.8,-34.3651
73.85,4.179324,73.85,5.559606,28.9,4.660492,,,,,,,,,73.95,-37.92082
74,4.146182,74,32.0074,29.05,5.014399,,,,,,,,,74.1,38.53408
74.15,4.155323,74.15,5.132564,29.2,5.410058,,,,,,,,,74.25,11.6665
74.3,4.249945,74.3,64.93531,29.35,5.85428,,,,,,,,,74.4,-28.52334
74.45,4.510284,74.45,4.749206,29.5,6.355316,,,,,,,,,74.55,-35.36857
74.6,5.076511,74.6,-2.092206,29.65,6.923237,,,,,,,,,74.7,31.13105
74.75,6.178176,74.75,31.07797,29.8,7.57044,,,,,,,,,74.85,7.642403
74.9,8.16608,74.9,10.92661,29.95,8.312314,,,,,,,,,75,10.83237
75.05,11.53707,75.05,57.45395,30.1,9.168148,,,,,,,,,75.15,-22.63215
75.2,16.93633,75.2,-42.67314,30.25,10.16237,,,,,,,,,75.3,-2.750951
75.35,25.11773,75.35,70.54558,30.4,11.32627,,,,,,,,,75.45,17.14286
75.5,36.84471,75.5,3.776978,30.55,12.70042,,,,,,,,,75.6,53.71618
75.65,52.72541,75.65,63.68796,30.7,14.33817,,,,,,,,,75.75,100.3026
75.8,72.99686,75.8,56.9454,30.85,16.31071,,,,,,,,,75.9,103.5689
75.95,97.30112,75.95,76.88286,31,18.71465,,,,,,,,,76.05,93.51536
76.1,124.5197,76.1,150.1672,31.15,21.68352,,,,,,,,,76.2,96.8089
76.25,152.7403,76.25,183.4654,31.3,25.40554,,,,,,,,,76.35,163.4497
76.4,179.4114,76.4,203.4442,31.45,30.15065,,,,,,,,,76.5,190.1047
76.55,201.6899,76.55,126.7706,31.6,36.30613,,,,,,,,,76.65,180.1074
76.7,216.9296,76.7,210.1115,31.75,44.39576,,,,,,,,,76.8,206.7913
76.85,223.4075,76.85,260.1337,31.9,54.97882,,,,,,,,,76.95,176.8234
77,222.802,77,183.5041,32.05,68.2076,,,,,,,,,77.1,223.5372
77.15,216.5507,77.15,226.8897,32.2,82.97274,,,,,,,,,77.25,196.933
77.3,206.5209,77.3,216.9572,32.35,96.6777,,,,,,,,,77.4,187.0109
77.45,193.8822,77.45,147.0403,32.5,108.5269,,,,,,,,,77.55,227.1045
77.6,179.9097,77.6,170.4726,32.65,127.547,,,,,,,,,77.7,93.88071
77.75,165.7821,77.75,157.2541,32.8,172.8464,,,,,,,,,77.85,117.3397
77.9,152.43,77.9,127.3853,32.95,234.5543,,,,,,,,,78,104.1485
78.05,140.472,78.05,60.86616,33.1,251.0533,,,,,,,,,78.15,100.9738
78.2,130.2218,78.2,121.0304,33.25,239.5807,,,,,,,,,78.3,84.48257
78.35,121.7403,78.35,84.54483,33.4,217.2237,,,,,,,,,78.45,44.67506
78.5,114.9063,78.5,98.07639,33.55,187.1253,,,,,,,,,78.6,98.21814
78.65,109.4863,78.65,68.29193,33.7,153.1541,,,,,,,,,78.75,178.4454
78.8,105.1936,78.8,161.8584,33.85,119.0958,,,,,,,,,78.9,108.6903
78.95,101.733,78.95,115.4426,34,87.99063,,,,,,,,,79.05,92.28644
79.1,98.83187,79.1,125.7114,34.15,61.76596,,,,,,,,,79.2,119.2341
79.25,96.25732,79.25,109.3318,34.3,41.19413,,,,,,,,,79.35,139.5334
79.4,93.82507,79.4,102.9706,34.45,26.1033,,,,,,,,,79.5,146.518
79.55,91.40052,79.55,153.2948,34.6,15.71557,,,,,,,,,79.65,123.5213
79.7,88.8952,79.7,116.9711,34.75,8.989591,,,,,,,,,79.8,120.5437
79.85,86.26044,79.85,113.9999,34.9,4.885682,,,,,,,,,79.95,87.58534
80,83.47961,80,111.048,35.05,2.522821,,,,,,,,,,
,,,,35.2,1.237725,,,,,,,,,,
,,,,35.35,0.5769503,,,,,,,,,,
,,,,35.5,0.2555229,,,,,,,,,,
,,,,35.65,0.1075224,,,,,,,,,,
,,,,35.8,0.04298784,,,,,,,,,,
,,,,35.95,0.01632941,,,,,,,,,,
,,,,36.1,0.005893514,,,,,,,,,,
,,,,36.25,0.002020963,,,,,,,,,,
,,,,36.4,0.000658455,,,,,,,,,,
,,,,36.55,0.000203841,,,,,,,,,,
,,,,36.7,6.00E-05,,,,,,,,,,
,,,,36.85,1.68E-05,,,,,,,,,,
,,,,37,4.46E-06,,,,,,,,,,
,,,,37.15,1.14E-06,,,,,,,,,,
,,,,37.3,1.28E-08,,,,,,,,,,
,,,,37.45,1.20E-08,,,,,,,,,,
,,,,37.6,1.13E-08,,,,,,,,,,
,,,,37.75,1.06E-08,,,,,,,,,,
,,,,37.9,9.94E-09,,,,,,,,,,
,,,,38.05,9.37E-09,,,,,,,,,,
,,,,38.2,8.85E-09,,,,,,,,,,
,,,,38.35,8.37E-09,,,,,,,,,,
,,,,38.5,7.92E-09,,,,,,,,,,
,,,,38.65,7.51E-09,,,,,,,,,,
,,,,38.8,7.13E-09,,,,,,,,,,
,,,,38.95,6.78E-09,,,,,,,,,,
,,,,39.1,6.45E-09,,,,,,,,,,
,,,,39.25,6.15E-09,,,,,,,,,,
,,,,39.4,5.87E-09,,,,,,,,,,
,,,,39.55,5.61E-09,,,,,,,,,,
,,,,39.7,5.36E-09,,,,,,,,,,
,,,,39.85,5.13E-09,,,,,,,,,,
,,,,40,4.91E-09,,,,,,,,,,
,,,,40.15,4.71E-09,,,,,,,,,,
,,,,40.3,4.52E-09,,,,,,,,,,
,,,,40.45,4.34E-09,,,,,,,,,,
,,,,40.6,4.17E-09,,,,,,,,,,
,,,,40.75,4.01E-09,,,,,,,,,,
,,,,40.9,3.86E-09,,,,,,,,,,
,,,,41.05,3.72E-09,,,,,,,,,,
,,,,41.2,3.59E-09,,,,,,,,,,
,,,,41.35,3.46E-09,,,,,,,,,,
,,,,41.5,3.34E-09,,,,,,,,,,
,,,,41.65,3.22E-09,,,,,,,,,,
,,,,41.8,3.12E-09,,,,,,,,,,
,,,,41.95,3.01E-09,,,,,,,,,,
,,,,42.1,2.91E-09,,,,,,,,,,
,,,,42.25,2.82E-09,,,,,,,,,,
,,,,42.4,2.73E-09,,,,,,,,,,
,,,,42.55,2.65E-09,,,,,,,,,,
,,,,42.7,2.57E-09,,,,,,,,,,
,,,,42.85,2.49E-09,,,,,,,,,,
,,,,43,2.41E-09,,,,,,,,,,
,,,,43.15,2.34E-09,,,,,,,,,,
,,,,43.3,2.28E-09,,,,,,,,,,
,,,,43.45,2.21E-09,,,,,,,,,,
,,,,43.6,2.15E-09,,,,,,,,,,
,,,,43.75,2.09E-09,,,,,,,,,,
,,,,43.9,2.03E-09,,,,,,,,,,
,,,,44.05,1.98E-09,,,,,,,,,,
,,,,44.2,1.93E-09,,,,,,,,,,
,,,,44.35,1.88E-09,,,,,,,,,,
,,,,44.5,1.83E-09,,,,,,,,,,
,,,,44.65,1.78E-09,,,,,,,,,,
,,,,44.8,1.74E-09,,,,,,,,,,
,,,,44.95,1.69E-09,,,,,,,,,,
,,,,45.1,1.65E-09,,,,,,,,,,
,,,,45.25,1.61E-09,,,,,,,,,,
,,,,45.4,1.57E-09,,,,,,,,,,
,,,,45.55,1.53E-09,,,,,,,,,,
,,,,45.7,1.50E-09,,,,,,,,,,
,,,,45.85,1.46E-09,,,,,,,,,,
,,,,46,1.43E-09,,,,,,,,,,
,,,,46.15,1.40E-09,,,,,,,,,,
,,,,46.3,1.37E-09,,,,,,,,,,
,,,,46.45,1.34E-09,,,,,,,,,,
,,,,46.6,1.31E-09,,,,,,,,,,
,,,,46.75,1.28E-09,,,,,,,,,,
,,,,46.9,1.25E-09,,,,,,,,,,
,,,,47.05,1.22E-09,,,,,,,,,,
,,,,47.2,1.20E-09,,,,,,,,,,
,,,,47.35,1.17E-09,,,,,,,,,,
,,,,47.5,1.15E-09,,,,,,,,,,
,,,,47.65,1.13E-09,,,,,,,,,,
,,,,47.8,1.10E-09,,,,,,,,,,
,,,,47.95,1.08E-09,,,,,,,,,,
,,,,48.1,1.06E-09,,,,,,,,,,
,,,,48.25,1.04E-09,,,,,,,,,,
,,,,48.4,1.02E-09,,,,,,,,,,
,,,,48.55,9.99E-10,,,,,,,,,,
,,,,48.7,9.80E-10,,,,,,,,,,
,,,,48.85,9.62E-10,,,,,,,,,,
,,,,49,9.44E-10,,,,,,,,,,
,,,,49.15,9.27E-10,,,,,,,,,,
,,,,49.3,9.10E-10,,,,,,,,,,
,,,,49.45,8.93E-10,,,,,,,,,,
,,,,49.6,8.77E-10,,,,,,,,,,
,,,,49.75,8.61E-10,,,,,,,,,,
,,,,49.9,8.46E-10,,,,,,,,,,
,,,,50.05,8.31E-10,,,,,,,,,,
,,,,50.2,8.17E-10,,,,,,,,,,
,,,,50.35,8.03E-10,,,,,,,,,,
,,,,50.5,7.89E-10,,,,,,,,,,
,,,,50.65,7.76E-10,,,,,,,,,,
,,,,50.8,7.63E-10,,,,,,,,,,
,,,,50.95,7.50E-10,,,,,,,,,,
,,,,51.1,7.38E-10,,,,,,,,,,
,,,,51.25,7.26E-10,,,,,,,,,,
,,,,51.4,7.14E-10,,,,,,,,,,
,,,,51.55,7.02E-10,,,,,,,,,,
,,,,51.7,6.91E-10,,,,,,,,,,
,,,,51.85,6.80E-10,,,,,,,,,,
,,,,52,6.69E-10,,,,,,,,,,
,,,,52.15,6.59E-10,,,,,,,,,,
,,,,52.3,6.49E-10,,,,,,,,,,
,,,,52.45,6.39E-10,,,,,,,,,,
,,,,52.6,6.29E-10,,,,,,,,,,
,,,,52.75,6.19E-10,,,,,,,,,,
,,,,52.9,6.10E-10,,,,,,,,,,
,,,,53.05,6.01E-10,,,,,,,,,,
,,,,53.2,5.92E-10,,,,,,,,,,
,,,,53.35,5.83E-10,,,,,,,,,,
,,,,53.5,5.75E-10,,,,,,,,,,
,,,,53.65,5.67E-10,,,,,,,,,,
,,,,53.8,5.58E-10,,,,,,,,,,
,,,,53.95,5.51E-10,,,,,,,,,,
,,,,54.1,5.43E-10,,,,,,,,,,
,,,,54.25,5.35E-10,,,,,,,,,,
,,,,54.4,5.28E-10,,,,,,,,,,
,,,,54.55,5.20E-10,,,,,,,,,,
,,,,54.7,5.13E-10,,,,,,,,,,
,,,,54.85,5.06E-10,,,,,,,,,,
,,,,55,4.99E-10,,,,,,,,,,
,,,,55.15,4.92E-10,,,,,,,,,,
,,,,55.3,4.86E-10,,,,,,,,,,
,,,,55.45,4.79E-10,,,,,,,,,,
,,,,55.6,4.73E-10,,,,,,,,,,
,,,,55.75,4.67E-10,,,,,,,,,,
,,,,55.9,4.61E-10,,,,,,,,,,
,,,,56.05,4.55E-10,,,,,,,,,,
,,,,56.2,4.49E-10,,,,,,,,,,
,,,,56.35,4.43E-10,,,,,,,,,,
,,,,56.5,4.37E-10,,,,,,,,,,
,,,,56.65,4.32E-10,,,,,,,,,,
,,,,56.8,4.27E-10,,,,,,,,,,
,,,,56.95,4.21E-10,,,,,,,,,,
,,,,57.1,4.16E-10,,,,,,,,,,
,,,,57.25,4.11E-10,,,,,,,,,,
,,,,57.4,4.06E-10,,,,,,,,,,
,,,,57.55,4.01E-10,,,,,,,,,,
,,,,57.7,3.96E-10,,,,,,,,,,
,,,,57.85,3.91E-10,,,,,,,,,,
,,,,58,3.87E-10,,,,,,,,,,
,,,,58.15,3.82E-10,,,,,,,,,,
,,,,58.3,3.77E-10,,,,,,,,,,
,,,,58.45,3.73E-10,,,,,,,,,,
,,,,58.6,3.69E-10,,,,,,,,,,
,,,,58.75,3.64E-10,,,,,,,,,,
,,,,58.9,3.60E-10,,,,,,,,,,
,,,,59.05,3.56E-10,,,,,,,,,,
,,,,59.2,3.52E-10,,,,,,,,,,
,,,,59.35,3.48E-10,,,,,,,,,,
,,,,59.5,3.44E-10,,,,,,,,,,
,,,,59.65,3.40E-10,,,,,,,,,,
,,,,59.8,3.36E-10,,,,,,,,,,
,,,,59.95,3.33E-10,,,,,,,,,,
,,,,60.1,3.29E-10,,,,,,,,,,
,,,,60.25,3.25E-10,,,,,,,,,,
,,,,60.4,3.22E-10,,,,,,,,,,
,,,,60.55,3.18E-10,,,,,,,,,,
,,,,60.7,3.15E-10,,,,,,,,,,
,,,,60.85,3.11E-10,,,,,,,,,,
,,,,61,3.08E-10,,,,,,,,,,
,,,,61.15,3.05E-10,,,,,,,,,,
,,,,61.3,3.02E-10,,,,,,,,,,
,,,,61.45,2.98E-10,,,,,,,,,,
,,,,61.6,2.95E-10,,,,,,,,,,
,,,,61.75,2.92E-10,,,,,,,,,,
,,,,61.9,2.89E-10,,,,,,,,,,
,,,,62.05,2.86E-10,,,,,,,,,,
,,,,62.2,2.83E-10,,,,,,,,,,
,,,,62.35,2.80E-10,,,,,,,,,,
,,,,62.5,2.78E-10,,,,,,,,,,
,,,,62.65,2.75E-10,,,,,,,,,,
,,,,62.8,2.72E-10,,,,,,,,,,
,,,,62.95,2.69E-10,,,,,,,,,,
,,,,63.1,2.67E-10,,,,,,,,,,
,,,,63.25,2.64E-10,,,,,,,,,,
,,,,63.4,2.61E-10,,,,,,,,,,
,,,,63.55,2.59E-10,,,,,,,,,,
,,,,63.7,2.56E-10,,,,,,,,,,
,,,,63.85,2.54E-10,,,,,,,,,,
,,,,64,2.51E-10,,,,,,,,,,
,,,,64.15,2.49E-10,,,,,,,,,,
,,,,64.3,2.47E-10,,,,,,,,,,
,,,,64.45,2.44E-10,,,,,,,,,,
,,,,64.6,2.42E-10,,,,,,,,,,
,,,,64.75,2.40E-10,,,,,,,,,,
,,,,64.9,2.37E-10,,,,,,,,,,
,,,,65.05,2.35E-10,,,,,,,,,,
,,,,65.2,2.33E-10,,,,,,,,,,
,,,,65.35,2.31E-10,,,,,,,,,,
,,,,65.5,2.29E-10,,,,,,,,,,
,,,,65.65,2.27E-10,,,,,,,,,,
,,,,65.8,2.24E-10,,,,,,,,,,
,,,,65.95,2.22E-10,,,,,,,,,,
,,,,66.1,2.20E-10,,,,,,,,,,
,,,,66.25,2.18E-10,,,,,,,,,,
,,,,66.4,2.16E-10,,,,,,,,,,
,,,,66.55,2.15E-10,,,,,,,,,,
,,,,66.7,2.13E-10,,,,,,,,,,
,,,,66.85,2.11E-10,,,,,,,,,,
,,,,67,2.09E-10,,,,,,,,,,
,,,,67.15,2.07E-10,,,,,,,,,,
,,,,67.3,2.05E-10,,,,,,,,,,
,,,,67.45,2.03E-10,,,,,,,,,,
,,,,67.6,2.02E-10,,,,,,,,,,
,,,,67.75,2.00E-10,,,,,,,,,,
,,,,67.9,1.98E-10,,,,,,,,,,
,,,,68.05,1.97E-10,,,,,,,,,,
,,,,68.2,1.95E-10,,,,,,,,,,
,,,,68.35,1.93E-10,,,,,,,,,,
,,,,68.5,1.92E-10,,,,,,,,,,
,,,,68.65,1.90E-10,,,,,,,,,,
,,,,68.8,1.88E-10,,,,,,,,,,
,,,,68.95,1.87E-10,,,,,,,,,,
,,,,69.1,1.85E-10,,,,,,,,,,
,,,,69.25,1.84E-10,,,,,,,,,,
,,,,69.4,1.82E-10,,,,,,,,,,
,,,,69.55,1.81E-10,,,,,,,,,,
,,,,69.7,1.79E-10,,,,,,,,,,
,,,,69.85,1.78E-10,,,,,,,,,,
,,,,70,1.76E-10,,,,,,,,,,
,,,,70.15,1.75E-10,,,,,,,,,,
,,,,70.3,1.74E-10,,,,,,,,,,
,,,,70.45,1.72E-10,,,,,,,,,,
[...]
,,,,44.95,3.56E-16,,,,,,,,,,
,,,,45,3.57E-16,,,,,,,,,,
,,,,45.05,3.58E-16,,,,,,,,,,
,,,,45.1,3.59E-16,,,,,,,,,,
,,,,45.15,3.60E-16,,,,,,,,,,
,,,,45.2,3.61E-16,,,,,,,,,,
,,,,45.25,3.62E-16,,,,,,,,,,
,,,,45.3,3.64E-16,,,,,,,,,,
,,,,45.35,3.65E-16,,,,,,,,,,
,,,,45.4,3.66E-16,,,,,,,,,,
,,,,45.45,3.67E-16,,,,,,,,,,
,,,,45.5,3.68E-16,,,,,,,,,,
,,,,45.55,3.69E-16,,,,,,,,,,
,,,,45.6,3.71E-16,,,,,,,,,,
,,,,45.65,3.72E-16,,,,,,,,,,
,,,,45.7,3.73E-16,,,,,,,,,,
,,,,45.75,3.74E-16,,,,,,,,,,
,,,,45.8,3.75E-16,,,,,,,,,,
,,,,45.85,3.77E-16,,,,,,,,,,
,,,,45.9,3.78E-16,,,,,,,,,,
,,,,45.95,3.79E-16,,,,,,,,,,
,,,,46,3.80E-16,,,,,,,,,,
,,,,46.05,3.81E-16,,,,,,,,,,
,,,,46.1,3.83E-16,,,,,,,,,,
,,,,46.15,3.84E-16,,,,,,,,,,
,,,,46.2,3.85E-16,,,,,,,,,,
,,,,46.25,3.86E-16,,,,,,,,,,
,,,,46.3,3.88E-16,,,,,,,,,,
,,,,46.35,3.89E-16,,,,,,,,,,
,,,,46.4,3.90E-16,,,,,,,,,,
,,,,46.45,3.92E-16,,,,,,,,,,
,,,,46.5,3.93E-16,,,,,,,,,,
,,,,46.55,3.94E-16,,,,,,,,,,
,,,,46.6,3.95E-16,,,,,,,,,,
,,,,46.65,3.97E-16,,,,,,,,,,
,,,,46.7,3.98E-16,,,,,,,,,,
,,,,46.75,3.99E-16,,,,,,,,,,
,,,,46.8,4.01E-16,,,,,,,,,,
,,,,46.85,4.02E-16,,,,,,,,,,
,,,,46.9,4.03E-16,,,,,,,,,,
,,,,46.95,4.05E-16,,,,,,,,,,
,,,,47,4.06E-16,,,,,,,,,,
,,,,47.05,4.07E-16,,,,,,,,,,
,,,,47.1,4.09E-16,,,,,,,,,,
,,,,47.15,4.10E-16,,,,,,,,,,
,,,,47.2,4.12E-16,,,,,,,,,,
,,,,47.25,4.13E-16,,,,,,,,,,
,,,,47.3,4.14E-16,,,,,,,,,,
,,,,47.35,4.16E-16,,,,,,,,,,
,,,,47.4,4.17E-16,,,,,,,,,,
,,,,47.45,4.19E-16,,,,,,,,,,
,,,,47.5,4.20E-16,,,,,,,,,,
,,,,47.55,4.21E-16,,,,,,,,,,
,,,,47.6,4.23E-16,,,,,,,,,,
,,,,47.65,4.24E-16,,,,,,,,,,
,,,,47.7,4.26E-16,,,,,,,,,,
,,,,47.75,4.27E-16,,,,,,,,,,
,,,,47.8,4.29E-16,,,,,,,,,,
,,,,47.85,4.30E-16,,,,,,,,,,
,,,,47.9,4.32E-16,,,,,,,,,,
,,,,47.95,4.33E-16,,,,,,,,,,
,,,,48,4.35E-16,,,,,,,,,,
,,,,48.05,4.36E-16,,,,,,,,,,
,,,,48.1,4.38E-16,,,,,,,,,,
,,,,48.15,4.39E-16,,,,,,,,,,
,,,,48.2,4.41E-16,,,,,,,,,,
,,,,48.25,4.42E-16,,,,,,,,,,
,,,,48.3,4.44E-16,,,,,,,,,,
,,,,48.35,4.45E-16,,,,,,,,,,
,,,,48.4,4.47E-16,,,,,,,,,,
,,,,48.45,4.49E-16,,,,,,,,,,
,,,,48.5,4.50E-16,,,,,,,,,,
,,,,48.55,4.52E-16,,,,,,,,,,
,,,,48.6,4.53E-16,,,,,,,,,,
,,,,48.65,4.55E-16,,,,,,,,,,
,,,,48.7,4.57E-16,,,,,,,,,,
,,,,48.75,4.58E-16,,,,,,,,,,
,,,,48.8,4.60E-16,,,,,,,,,,
,,,,48.85,4.61E-16,,,,,,,,,,
,,,,48.9,4.63E-16,,,,,,,,,,
,,,,48.95,4.65E-16,,,,,,,,,,
,,,,49,4.66E-16,,,,,,,,,,
,,,,49.05,4.68E-16,,,,,,,,,,
,,,,49.1,4.70E-16,,,,,,,,,,
,,,,49.15,4.71E-16,,,,,,,,,,
,,,,49.2,4.73E-16,,,,,,,,,,
,,,,49.25,4.75E-16,,,,,,,,,,
,,,,49.3,4.77E-16,,,,,,,,,,
,,,,49.35,4.78E-16,,,,,,,,,,
,,,,49.4,4.80E-16,,,,,,,,,,
,,,,49.45,4.82E-16,,,,,,,,,,
,,,,49.5,4.84E-16,,,,,,,,,,
,,,,49.55,4.85E-16,,,,,,,,,,
,,,,49.6,4.87E-16,,,,,,,,,,
,,,,49.65,4.89E-16,,,,,,,,,,
,,,,49.7,4.91E-16,,,,,,,,,,
,,,,49.75,4.93E-16,,,,,,,,,,
,,,,49.8,4.94E-16,,,,,,,,,,
,,,,49.85,4.96E-16,,,,,,,,,,
,,,,49.9,4.98E-16,,,,,,,,,,
,,,,49.95,5.00E-16,,,,,,,,,,
,,,,50,5.02E-16,,,,,,,,,,
,,,,50.05,5.04E-16,,,,,,,,,,
,,,,50.1,5.06E-16,,,,,,,,,,
,,,,50.15,5.07E-16,,,,,,,,,,
,,,,50.2,5.09E-16,,,,,,,,,,
,,,,50.25,5.11E-16,,,,,,,,,,
,,,,50.3,5.13E-16,,,,,,,,,,
,,,,50.35,5.15E-16,,,,,,,,,,
,,,,50.4,5.17E-16,,,,,,,,,,
,,,,50.45,5.19E-16,,,,,,,,,,
,,,,50.5,5.21E-16,,,,,,,,,,
,,,,50.55,5.23E-16,,,,,,,,,,
,,,,50.6,5.25E-16,,,,,,,,,,
,,,,50.65,5.27E-16,,,,,,,,,,
,,,,50.7,5.29E-16,,,,,,,,,,
,,,,50.75,5.31E-16,,,,,,,,,,
,,,,50.8,5.33E-16,,,,,,,,,,
,,,,50.85,5.35E-16,,,,,,,,,,
,,,,50.9,5.37E-16,,,,,,,,,,
,,,,50.95,5.39E-16,,,,,,,,,,
,,,,51,5.41E-16,,,,,,,,,,
,,,,51.05,5.43E-16,,,,,,,,,,
,,,,51.1,5.45E-16,,,,,,,,,,
,,,,51.15,5.48E-16,,,,,,,,,,
,,,,51.2,5.50E-16,,,,,,,,,,
,,,,51.25,5.52E-16,,,,,,,,,,
,,,,51.3,5.54E-16,,,,,,,,,,
,,,,51.35,5.56E-16,,,,,,,,,,
,,,,51.4,5.58E-16,,,,,,,,,,
,,,,51.45,5.61E-16,,,,,,,,,,
,,,,51.5,5.63E-16,,,,,,,,,,
,,,,51.55,5.65E-16,,,,,,,,,,
,,,,51.6,5.67E-16,,,,,,,,,,
,,,,51.65,5.69E-16,,,,,,,,,,
,,,,51.7,5.72E-16,,,,,,,,,,
,,,,51.75,5.74E-16,,,,,,,,,,
,,,,51.8,5.76E-16,,,,,,,,,,
,,,,51.85,5.79E-16,,,,,,,,,,
,,,,51.9,5.81E-16,,,,,,,,,,
,,,,51.95,5.83E-16,,,,,,,,,,
,,,,52,5.86E-16,,,,,,,,,,
,,,,52.05,5.88E-16,,,,,,,,,,
,,,,52.1,5.90E-16,,,,,,,,,,
,,,,52.15,5.93E-16,,,,,,,,,,
,,,,52.2,5.95E-16,,,,,,,,,,
,,,,52.25,5.98E-16,,,,,,,,,,
,,,,52.3,6.00E-16,,,,,,,,,,
,,,,52.35,6.02E-16,,,,,,,,,,
,,,,52.4,6.05E-16,,,,,,,,,,
,,,,52.45,6.07E-16,,,,,,,,,,
,,,,52.5,6.10E-16,,,,,,,,,,
,,,,52.55,6.12E-16,,,,,,,,,,
,,,,52.6,6.15E-16,,,,,,,,,,
,,,,52.65,6.17E-16,,,,,,,,,,
,,,,52.7,6.20E-16,,,,,,,,,,
,,,,52.75,6.23E-16,,,,,,,,,,
,,,,52.8,6.25E-16,,,,,,,,,,
,,,,52.85,6.28E-16,,,,,,,,,,
,,,,52.9,6.30E-16,,,,,,,,,,
,,,,52.95,6.33E-16,,,,,,,,,,
,,,,53,6.36E-16,,,,,,,,,,
,,,,53.05,6.38E-16,,,,,,,,,,
,,,,53.1,6.41E-16,,,,,,,,,,
,,,,53.15,6.44E-16,,,,,,,,,,
,,,,53.2,6.46E-16,,,,,,,,,,
,,,,53.25,6.49E-16,,,,,,,,,,
,,,,53.3,6.52E-16,,,,,,,,,,
,,,,53.35,6.55E-16,,,,,,,,,,
,,,,53.4,6.57E-16,,,,,,,,,,
,,,,53.45,6.60E-16,,,,,,,,,,
,,,,53.5,6.63E-16,,,,,,,,,,
,,,,53.55,6.66E-16,,,,,,,,,,
,,,,53.6,6.69E-16,,,,,,,,,,
,,,,53.65,6.72E-16,,,,,,,,,,
,,,,53.7,6.75E-16,,,,,,,,,,
,,,,53.75,6.77E-16,,,,,,,,,,
,,,,53.8,6.80E-16,,,,,,,,,,
,,,,53.85,6.83E-16,,,,,,,,,,
,,,,53.9,6.86E-16,,,,,,,,,,
,,,,53.95,6.89E-16,,,,,,,,,,
,,,,54,6.92E-16,,,,,,,,,,
,,,,54.05,6.95E-16,,,,,,,,,,
,,,,54.1,6.98E-16,,,,,,,,,,
,,,,54.15,7.02E-16,,,,,,,,,,
,,,,54.2,7.05E-16,,,,,,,,,,
,,,,54.25,7.08E-16,,,,,,,,,,
,,,,54.3,7.11E-16,,,,,,,,,,
,,,,54.35,7.14E-16,,,,,,,,,,
,,,,54.4,7.17E-16,,,,,,,,,,
,,,,54.45,7.20E-16,,,,,,,,,,
,,,,54.5,7.24E-16,,,,,,,,,,
,,,,54.55,7.27E-16,,,,,,,,,,
,,,,54.6,7.30E-16,,,,,,,,,,
,,,,54.65,7.33E-16,,,,,,,,,,
,,,,54.7,7.37E-16,,,,,,,,,,
,,,,54.75,7.40E-16,,,,,,,,,,
,,,,54.8,7.43E-16,,,,,,,,,,
,,,,54.85,7.47E-16,,,,,,,,,,
,,,,54.9,7.50E-16,,,,,,,,,,
,,,,54.95,7.54E-16,,,,,,,,,,
,,,,55,7.57E-16,,,,,,,,,,
,,,,55.05,7.60E-16,,,,,,,,,,
,,,,55.1,7.64E-16,,,,,,,,,,
,,,,55.15,7.68E-16,,,,,,,,,,
,,,,55.2,7.71E-16,,,,,,,,,,
,,,,55.25,7.75E-16,,,,,,,,,,
,,,,55.3,7.78E-16,,,,,,,,,,
,,,,55.35,7.82E-16,,,,,,,,,,
,,,,55.4,7.85E-16,,,,,,,,,,
,,,,55.45,7.89E-16,,,,,,,,,,
,,,,55.5,7.93E-16,,,,,,,,,,
,,,,55.55,7.97E-16,,,,,,,,,,
,,,,55.6,8.00E-16,,,,,,,,,,
,,,,55.65,8.04E-16,,,,,,,,,,
,,,,55.7,8.08E-16,,,,,,,,,,
,,,,55.75,8.12E-16,,,,,,,,,,
,,,,55.8,8.16E-16,,,,,,,,,,
,,,,55.85,8.19E-16,,,,,,,,,,
,,,,55.9,8.23E-16,,,,,,,,,,
,,,,55.95,8.27E-16,,,,,,,,,,
,,,,56,8.31E-16,,,,,,,,,,
,,,,56.05,8.35E-16,,,,,,,,,,
,,,,56.1,8.39E-16,,,,,,,,,,
,,,,56.15,8.43E-16,,,,,,,,,,
,,,,56.2,8.47E-16,,,,,,,,,,
,,,,56.25,8.51E-16,,,,,,,,,,
,,,,56.3,8.56E-16,,,,,,,,,,
,,,,56.35,8.60E-16,,,,,,,,,,
,,,,56.4,8.64E-16,,,,,,,,,,
,,,,56.45,8.68E-16,,,,,,,,,,
,,,,56.5,8.72E-16,,,,,,,,,,
,,,,56.55,8.77E-16,,,,,,,,,,
,,,,56.6,8.81E-16,,,,,,,,,,
,,,,56.65,8.85E-16,,,,,,,,,,
,,,,56.7,8.90E-16,,,,,,,,,,
,,,,56.75,8.94E-16,,,,,,,,,,
,,,,56.8,8.99E-16,,,,,,,,,,
,,,,56.85,9.03E-16,,,,,,,,,,
,,,,56.9,9.08E-16,,,,,,,,,,
,,,,56.95,9.12E-16,,,,,,,,,,
,,,,57,9.17E-16,,,,,,,,,,
,,,,57.05,9.21E-16,,,,,,,,,,
,,,,57.1,9.26E-16,,,,,,,,,,
,,,,57.15,9.31E-16,,,,,,,,,,
,,,,57.2,9.36E-16,,,,,,,,,,
,,,,57.25,9.40E-16,,,,,,,,,,
,,,,57.3,9.45E-16,,,,,,,,,,
,,,,57.35,9.50E-16,,,,,,,,,,
,,,,57.4,9.55E-16,,,,,,,,,,
,,,,57.45,9.60E-16,,,,,,,,,,
,,,,57.5,9.65E-16,,,,,,,,,,
,,,,57.55,9.70E-16,,,,,,,,,,
,,,,57.6,9.75E-16,,,,,,,,,,
,,,,57.65,9.80E-16,,,,,,,,,,
,,,,57.7,9.85E-16,,,,,,,,,,
,,,,57.75,9.90E-16,,,,,,,,,,
,,,,57.8,9.95E-16,,,,,,,,,,
,,,,57.85,1.00E-15,,,,,,,,,,
,,,,57.9,1.01E-15,,,,,,,,,,
,,,,57.95,1.01E-15,,,,,,,,,,
,,,,58,1.02E-15,,,,,,,,,,
,,,,58.05,1.02E-15,,,,,,,,,,
,,,,58.1,1.03E-15,,,,,,,,,,
,,,,58.15,1.03E-15,,,,,,,,,,
,,,,58.2,1.04E-15,,,,,,,,,,
,,,,58.25,1.04E-15,,,,,,,,,,
,,,,58.3,1.05E-15,,,,,,,,,,
,,,,58.35,1.06E-15,,,,,,,,,,
,,,,58.4,1.06E-15,,,,,,,,,,
,,,,58.45,1.07E-15,,,,,,,,,,
,,,,58.5,1.07E-15,,,,,,,,,,
,,,,58.55,1.08E-15,,,,,,,,,,
,,,,58.6,1.08E-15,,,,,,,,,,
,,,,58.65,1.09E-15,,,,,,,,,,
,,,,58.7,1.10E-15,,,,,,,,,,
,,,,58.75,1.10E-15,,,,,,,,,,
,,,,58.8,1.11E-15,,,,,,,,,,
,,,,58.85,1.11E-15,,,,,,,,,,
,,,,58.9,1.12E-15,,,,,,,,,,
,,,,58.95,1.13E-15,,,,,,,,,,
,,,,59,1.13E-15,,,,,,,,,,
,,,,59.05,1.14E-15,,,,,,,,,,
,,,,59.1,1.15E-15,,,,,,,,,,
,,,,59.15,1.15E-15,,,,,,,,,,
,,,,59.2,1.16E-15,,,,,,,,,,
,,,,59.25,1.17E-15,,,,,,,,,,
,,,,59.3,1.17E-15,,,,,,,,,,
,,,,59.35,1.18E-15,,,,,,,,,,
,,,,59.4,1.19E-15,,,,,,,,,,
,,,,59.45,1.19E-15,,,,,,,,,,
,,,,59.5,1.20E-15,,,,,,,,,,
,,,,59.55,1.21E-15,,,,,,,,,,
,,,,59.6,1.21E-15,,,,,,,,,,
,,,,59.65,1.22E-15,,,,,,,,,,
,,,,59.7,1.23E-15,,,,,,,,,,
,,,,59.75,1.23E-15,,,,,,,,,,
,,,,59.8,1.24E-15,,,,,,,,,,
,,,,59.85,1.25E-15,,,,,,,,,,
,,,,59.9,1.26E-15,,,,,,,,,,
,,,,59.95,1.26E-15,,,,,,,,,,
,,,,60,1.27E-15,,,,,,,,,,
,,,,60.05,1.28E-15,,,,,,,,,,
,,,,60.1,1.29E-15,,,,,,,,,,
,,,,60.15,1.29E-15,,,,,,,,,,
,,,,60.2,1.30E-15,,,,,,,,,,
,,,,60.25,1.31E-15,,,,,,,,,,
,,,,60.3,1.32E-15,,,,,,,,,,
,,,,60.35,1.33E-15,,,,,,,,,,
,,,,60.4,1.33E-15,,,,,,,,,,
,,,,60.45,1.34E-15,,,,,,,,,,
,,,,60.5,1.35E-15,,,,,,,,,,
,,,,60.55,1.36E-15,,,,,,,,,,
,,,,60.6,1.37E-15,,,,,,,,,,
,,,,60.65,1.37E-15,,,,,,,,,,
,,,,60.7,1.38E-15,,,,,,,,,,
,,,,60.75,1.39E-15,,,,,,,,,,
,,,,60.8,1.40E-15,,,,,,,,,,
,,,,60.85,1.41E-15,,,,,,,,,,
,,,,60.9,1.42E-15,,,,,,,,,,
,,,,60.95,1.43E-15,,,,,,,,,,
,,,,61,1.44E-15,,,,,,,,,,
,,,,61.05,1.44E-15,,,,,,,,,,
,,,,61.1,1.45E-15,,,,,,,,,,
,,,,61.15,1.46E-15,,,,,,,,,,
,,,,61.2,1.47E-15,,,,,,,,,,
,,,,61.25,1.48E-15,,,,,,,,,,
,,,,61.3,1.49E-15,,,,,,,,,,
,,,,61.35,1.50E-15,,,,,,,,,,
,,,,61.4,1.51E-15,,,,,,,,,,
,,,,61.45,1.52E-15,,,,,,,,,,
,,,,61.5,1.53E-15,,,,,,,,,,
,,,,61.55,1.54E-15,,,,,,,,,,
,,,,61.6,1.55E-15,,,,,,,,,,
,,,,61.65,1.56E-15,,,,,,,,,,
,,,,61.7,1.57E-15,,,,,,,,,,
,,,,61.75,1.58E-15,,,,,,,,,,
,,,,61.8,1.59E-15,,,,,,,,,,
,,,,61.85,1.60E-15,,,,,,,,,,
,,,,61.9,1.61E-15,,,,,,,,,,
,,,,61.95,1.62E-15,,,,,,,,,,
,,,,62,1.63E-15,,,,,,,,,,
,,,,62.05,1.65E-15,,,,,,,,,,
,,,,62.1,1.66E-15,,,,,,,,,,
,,,,62.15,1.67E-15,,,,,,,,,,
,,,,62.2,1.68E-15,,,,,,,,,,
,,,,62.25,1.69E-15,,,,,,,,,,
,,,,62.3,1.70E-15,,,,,,,,,,
,,,,62.35,1.71E-15,,,,,,,,,,
,,,,62.4,1.73E-15,,,,,,,,,,
,,,,62.45,1.74E-15,,,,,,,,,,
,,,,62.5,1.75E-15,,,,,,,,,,
,,,,62.55,1.76E-15,,,,,,,,,,
,,,,62.6,1.77E-15,,,,,,,,,,
,,,,62.65,1.79E-15,,,,,,,,,,
,,,,62.7,1.80E-15,,,,,,,,,,
,,,,62.75,1.81E-15,,,,,,,,,,
,,,,62.8,1.83E-15,,,,,,,,,,
,,,,62.85,1.84E-15,,,,,,,,,,
,,,,62.9,1.85E-15,,,,,,,,,,
,,,,62.95,1.86E-15,,,,,,,,,,
,,,,63,1.88E-15,,,,,,,,,,
,,,,63.05,1.89E-15,,,,,,,,,,
,,,,63.1,1.91E-15,,,,,,,,,,
,,,,63.15,1.92E-15,,,,,,,,,,
,,,,63.2,1.93E-15,,,,,,,,,,
,,,,63.25,1.95E-15,,,,,,,,,,
,,,,63.3,1.96E-15,,,,,,,,,,
,,,,63.35,1.98E-15,,,,,,,,,,
,,,,63.4,1.99E-15,,,,,,,,,,
,,,,63.45,2.01E-15,,,,,,,,,,
,,,,63.5,2.02E-15,,,,,,,,,,
,,,,63.55,2.04E-15,,,,,,,,,,
,,,,63.6,2.05E-15,,,,,,,,,,
,,,,63.65,2.07E-15,,,,,,,,,,
,,,,63.7,2.08E-15,,,,,,,,,,
,,,,63.75,2.10E-15,,,,,,,,,,
,,,,63.8,2.11E-15,,,,,,,,,,
,,,,63.85,2.13E-15,,,,,,,,,,
,,,,63.9,2.15E-15,,,,,,,,,,
,,,,63.95,2.16E-15,,,,,,,,,,
,,,,64,2.18E-15,,,,,,,,,,
,,,,64.05,2.20E-15,,,,,,,,,,
,,,,64.1,2.21E-15,,,,,,,,,,
,,,,64.15,2.23E-15,,,,,,,,,,
,,,,64.2,2.25E-15,,,,,,,,,,
,,,,64.25,2.27E-15,,,,,,,,,,
,,,,64.3,2.28E-15,,,,,,,,,,
,,,,64.35,2.30E-15,,,,,,,,,,
,,,,64.4,2.32E-15,,,,,,,,,,
,,,,64.45,2.34E-15,,,,,,,,,,
,,,,64.5,2.36E-15,,,,,,,,,,
,,,,64.55,2.38E-15,,,,,,,,,,
,,,,64.6,2.40E-15,,,,,,,,,,
,,,,64.65,2.42E-15,,,,,,,,,,
,,,,64.7,2.44E-15,,,,,,,,,,
,,,,64.75,2.46E-15,,,,,,,,,,
,,,,64.8,2.48E-15,,,,,,,,,,
,,,,64.85,2.50E-15,,,,,,,,,,
,,,,64.9,2.52E-15,,,,,,,,,,
,,,,64.95,2.54E-15,,,,,,,,,,
,,,,65,2.56E-15,,,,,,,,,,
,,,,65.05,2.58E-15,,,,,,,,,,
,,,,65.1,2.60E-15,,,,,,,,,,
,,,,65.15,2.63E-15,,,,,,,,,,
,,,,65.2,2.65E-15,,,,,,,,,,
,,,,65.25,2.67E-15,,,,,,,,,,
,,,,65.3,2.69E-15,,,,,,,,,,
,,,,65.35,2.72E-15,,,,,,,,,,
,,,,65.4,2.74E-15,,,,,,,,,,
,,,,65.45,2.77E-15,,,,,,,,,,
,,,,65.5,2.79E-15,,,,,,,,,,
,,,,65.55,2.81E-15,,,,,,,,,,
,,,,65.6,2.84E-15,,,,,,,,,,
,,,,65.65,2.86E-15,,,,,,,,,,
,,,,65.7,2.89E-15,,,,,,,,,,
,,,,65.75,2.92E-15,,,,,,,,,,
,,,,65.8,2.94E-15,,,,,,,,,,
,,,,65.85,2.97E-15,,,,,,,,,,
,,,,65.9,3.00E-15,,,,,,,,,,
,,,,65.95,3.02E-15,,,,,,,,,,
,,,,66,3.05E-15,,,,,,,,,,
,,,,66.05,3.08E-15,,,,,,,,,,
,,,,66.1,3.11E-15,,,,,,,,,,
,,,,66.15,3.14E-15,,,,,,,,,,
,,,,66.2,3.17E-15,,,,,,,,,,
,,,,66.25,3.20E-15,,,,,,,,,,
,,,,66.3,3.23E-15,,,,,,,,,,
,,,,66.35,3.26E-15,,,,,,,,,,
,,,,66.4,3.29E-15,,,,,,,,,,
,,,,66.45,3.32E-15,,,,,,,,,,
,,,,66.5,3.35E-15,,,,,,,,,,
,,,,66.55,3.38E-15,,,,,,,,,,
,,,,66.6,3.42E-15,,,,,,,,,,
,,,,66.65,3.45E-15,,,,,,,,,,
,,,,66.7,3.48E-15,,,,,,,,,,
,,,,66.75,3.52E-15,,,,,,,,,,
,,,,66.8,3.55E-15,,,,,,,,,,
,,,,66.85,3.59E-15,,,,,,,,,,
,,,,66.9,3.62E-15,,,,,,,,,,
,,,,66.95,3.66E-15,,,,,,,,,,
,,,,67,3.70E-15,,,,,,,,,,
,,,,67.05,3.73E-15,,,,,,,,,,
,,,,67.1,3.77E-15,,,,,,,,,,
,,,,67.15,3.81E-15,,,,,,,,,,
,,,,67.2,3.85E-15,,,,,,,,,,
,,,,67.25,3.89E-15,,,,,,,,,,
,,,,67.3,3.93E-15,,,,,,,,,,
,,,,67.35,3.97E-15,,,,,,,,,,
,,,,67.4,4.01E-15,,,,,,,,,,
,,,,67.45,4.06E-15,,,,,,,,,,
,,,,67.5,4.10E-15,,,,,,,,,,
,,,,67.55,4.14E-15,,,,,,,,,,
,,,,67.6,4.19E-15,,,,,,,,,,
,,,,67.65,4.23E-15,,,,,,,,,,
,,,,67.7,4.28E-15,,,,,,,,,,
,,,,67.75,4.32E-15,,,,,,,,,,
,,,,67.8,4.37E-15,,,,,,,,,,
,,,,67.85,4.42E-15,,,,,,,,,,
,,,,67.9,4.47E-15,,,,,,,,,,
,,,,67.95,4.52E-15,,,,,,,,,,
,,,,68,4.57E-15,,,,,,,,,,
,,,,68.05,4.62E-15,,,,,,,,,,
,,,,68.1,4.67E-15,,,,,,,,,,
,,,,68.15,4.73E-15,,,,,,,,,,
,,,,68.2,4.78E-15,,,,,,,,,,
,,,,68.25,4.84E-15,,,,,,,,,,
,,,,68.3,4.89E-15,,,,,,,,,,
,,,,68.35,4.95E-15,,,,,,,,,,
,,,,68.4,5.01E-15,,,,,,,,,,
,,,,68.45,5.07E-15,,,,,,,,,,
,,,,68.5,5.13E-15,,,,,,,,,,
,,,,68.55,5.19E-15,,,,,,,,,,
,,,,68.6,5.25E-15,,,,,,,,,,
,,,,68.65,5.31E-15,,,,,,,,,,
,,,,68.7,5.38E-15,,,,,,,,,,
,,,,68.75,5.44E-15,,,,,,,,,,
,,,,68.8,5.51E-15,,,,,,,,,,
,,,,68.85,5.58E-15,,,,,,,,,,
,,,,68.9,5.65E-15,,,,,,,,,,
,,,,68.95,5.72E-15,,,,,,,,,,
,,,,69,5.79E-15,,,,,,,,,,
,,,,69.05,5.86E-15,,,,,,,,,,
,,,,69.1,5.94E-15,,,,,,,,,,
,,,,69.15,6.02E-15,,,,,,,,,,
,,,,69.2,6.09E-15,,,,,,,,,,
,,,,69.25,6.17E-15,,,,,,,,,,
,,,,69.3,6.25E-15,,,,,,,,,,
,,,,69.35,6.34E-15,,,,,,,,,,
,,,,69.4,6.42E-15,,,,,,,,,,
,,,,69.45,6.51E-15,,,,,,,,,,
,,,,69.5,6.59E-15,,,,,,,,,,
,,,,69.55,6.68E-15,,,,,,,,,,
,,,,69.6,6.77E-15,,,,,,,,,,
,,,,69.65,6.87E-15,,,,,,,,,,
,,,,69.7,6.96E-15,,,,,,,,,,
,,,,69.75,7.06E-15,,,,,,,,,,
,,,,69.8,7.16E-15,,,,,,,,,,
,,,,69.85,7.26E-15,,,,,,,,,,
,,,,69.9,7.36E-15,,,,,,,,,,
,,,,69.95,7.47E-15,,,,,,,,,,
,,,,70,7.57E-15,,,,,,,,,,
,,,,70.05,7.68E-15,,,,,,,,,,
,,,,70.1,7.80E-15,,,,,,,,,,
,,,,70.15,7.91E-15,,,,,,,,,,
,,,,70.2,8.03E-15,,,,,,,,,,
,,,,70.25,8.15E-15,,,,,,,,,,
,,,,70.3,8.27E-15,,,,,,,,,,
,,,,70.35,8.40E-15,,,,,,,,,,
,,,,70.4,8.53E-15,,,,,,,,,,
,,,,70.45,8.66E-15,,,,,,,,,,
,,,,70.5,8.79E-15,,,,,,,,,,
,,,,70.55,8.93E-15,,,,,,,,,,
,,,,70.6,9.07E-15,,,,,,,,,,
,,,,70.65,9.21E-15,,,,,,,,,,
,,,,70.7,9.36E-15,,,,,,,,,,
,,,,70.75,9.51E-15,,,,,,,,,,
,,,,70.8,9.67E-15,,,,,,,,,,
,,,,70.85,9.82E-15,,,,,,,,,,
,,,,70.9,9.99E-15,,,,,,,,,,
,,,,70.95,1.02E-14,,,,,,,,,,
,,,,71,1.03E-14,,,,,,,,,,
,,,,71.05,1.05E-14,,,,,,,,,,
,,,,71.1,1.07E-14,,,,,,,,,,
,,,,71.15,1.09E-14,,,,,,,,,,
,,,,71.2,1.10E-14,,,,,,,,,,
,,,,71.25,1.12E-14,,,,,,,,,,
,,,,71.3,1.14E-14,,,,,,,,,,
,,,,71.35,1.16E-14,,,,,,,,,,
,,,,71.4,1.19E-14,,,,,,,,,,
,,,,71.45,1.21E-14,,,,,,,,,,
,,,,71.5,1.23E-14,,,,,,,,,,
,,,,71.55,1.25E-14,,,,,,,,,,
,,,,71.6,1.27E-14,,,,,,,,,,
,,,,71.65,1.30E-14,,,,,,,,,,
,,,,71.7,1.32E-14,,,,,,,,,,
,,,,71.75,1.35E-14,,,,,,,,,,
,,,,71.8,1.37E-14,,,,,,,,,,
,,,,71.85,1.40E-14,,,,,,,,,,
,,,,71.9,1.43E-14,,,,,,,,,,
,,,,71.95,1.46E-14,,,,,,,,,,
,,,,72,1.49E-14,,,,,,,,,,
,,,,72.05,1.52E-14,,,,,,,,,,
,,,,72.1,1.55E-14,,,,,,,,,,
,,,,72.15,1.58E-14,,,,,,,,,,
,,,,72.2,1.61E-14,,,,,,,,,,
,,,,72.25,1.65E-14,,,,,,,,,,
,,,,72.3,1.68E-14,,,,,,,,,,
,,,,72.35,1.72E-14,,,,,,,,,,
,,,,72.4,3.66E-07,,,,,,,,,,
,,,,72.45,5.72E-07,,,,,,,,,,
,,,,72.5,8.91E-07,,,,,,,,,,
,,,,72.55,1.38E-06,,,,,,,,,,
,,,,72.6,2.13E-06,,,,,,,,,,
,,,,72.65,3.49E-06,,,,,,,,,,
,,,,72.7,5.34E-06,,,,,,,,,,
,,,,72.75,8.11E-06,,,,,,,,,,
,,,,72.8,1.23E-05,,,,,,,,,,
,,,,72.85,1.85E-05,,,,,,,,,,
,,,,72.9,2.77E-05,,,,,,,,,,
,,,,72.95,4.12E-05,,,,,,,,,,
,,,,73,6.11E-05,,,,,,,,,,
,,,,73.05,9.01E-05,,,,,,,,,,
,,,,73.1,0.000132198,,,,,,,,,,
,,,,73.15,0.000192984,,,,,,,,,,
,,,,73.2,0.000280291,,,,,,,,,,
,,,,73.25,0.000405031,,,,,,,,,,
,,,,73.3,0.000582316,,,,,,,,,,
,,,,73.35,0.000832957,,,,,,,,,,
,,,,73.4,0.001185438,,,,,,,,,,
,,,,73.45,0.001678527,,,,,,,,,,
,,,,73.5,0.002364674,,,,,,,,,,
,,,,73.55,0.003314422,,,,,,,,,,
,,,,73.6,0.004622093,,,,,,,,,,
,,,,73.65,0.006413041,,,,,,,,,,
,,,,73.7,0.008852875,,,,,,,,,,
,,,,73.75,0.01215906,,,,,,,,,,
,,,,73.8,0.01661542,,,,,,,,,,
,,,,73.85,0.02259013,,,,,,,,,,
,,,,73.9,0.03055784,,,,,,,,,,
,,,,73.95,0.04112666,,,,,,,,,,
,,,,74,0.05507083,,,,,,,,,,
,,,,74.05,0.07336983,,,,,,,,,,
,,,,74.1,0.09725492,,,,,,,,,,
,,,,74.15,0.1282638,,,,,,,,,,
,,,,74.2,0.1683046,,,,,,,,,,
,,,,74.25,0.2197288,,,,,,,,,,
,,,,74.3,0.2854158,,,,,,,,,,
,,,,74.35,0.3688667,,,,,,,,,,
,,,,74.4,0.4743092,,,,,,,,,,
,,,,74.45,0.6068132,,,,,,,,,,
,,,,74.5,0.772414,,,,,,,,,,
,,,,74.55,0.9782444,,,,,,,,,,
,,,,74.6,1.232671,,,,,,,,,,
,,,,74.65,1.545434,,,,,,,,,,
,,,,74.7,1.927778,,,,,,,,,,
,,,,74.75,2.392586,,,,,,,,,,
,,,,74.8,2.954492,,,,,,,,,,
,,,,74.85,3.62997,,,,,,,,,,
,,,,74.9,4.437401,,,,,,,,,,
,,,,74.95,5.3971,,,,,,,,,,
,,,,75,6.531286,,,,,,,,,,
,,,,75.05,7.864008,,,,,,,,,,
,,,,75.1,9.420994,,,,,,,,,,
,,,,75.15,11.22942,,,,,,,,,,
,,,,75.2,13.31762,,,,,,,,,,
,,,,75.25,15.71466,,,,,,,,,,
,,,,75.3,18.44985,,,,,,,,,,
,,,,75.35,21.55215,,,,,,,,,,
,,,,75.4,25.0495,,,,,,,,,,
,,,,75.45,28.968,,,,,,,,,,
,,,,75.5,33.33109,,,,,,,,,,
,,,,75.55,38.15862,,,,,,,,,,
,,,,75.6,43.46588,,,,,,,,,,
,,,,75.65,49.2626,,,,,,,,,,
,,,,75.7,55.55201,,,,,,,,,,
,,,,75.75,62.3299,,,,,,,,,,
,,,,75.8,69.58374,,,,,,,,,,
,,,,75.85,77.29195,,,,,,,,,,
,,,,75.9,85.42332,,,,,,,,,,
,,,,75.95,93.93661,,,,,,,,,,
,,,,76,102.7803,,,,,,,,,,
,,,,76.05,111.8928,,,,,,,,,,
,,,,76.1,121.2027,,,,,,,,,,
,,,,76.15,130.6293,,,,,,,,,,
,,,,76.2,140.0837,,,,,,,,,,
,,,,76.25,149.4699,,,,,,,,,,
,,,,76.3,158.6864,,,,,,,,,,
,,,,76.35,167.6277,,,,,,,,,,
,,,,76.4,176.1865,,,,,,,,,,
,,,,76.45,184.2555,,,,,,,,,,
,,,,76.5,191.73,,,,,,,,,,
,,,,76.55,198.5097,,,,,,,,,,
,,,,76.6,204.5012,,,,,,,,,,
,,,,76.65,209.6201,,,,,,,,,,
,,,,76.7,213.793,,,,,,,,,,
,,,,76.75,216.9592,,,,,,,,,,
,,,,76.8,219.0723,,,,,,,,,,
,,,,76.85,220.3137,,,,,,,,,,
,,,,76.9,220.844,,,,,,,,,,
,,,,76.95,220.6552,,,,,,,,,,
,,,,77,219.7501,,,,,,,,,,
,,,,77.05,218.1696,,,,,,,,,,
,,,,77.1,216.0826,,,,,,,,,,
,,,,77.15,213.5397,,,,,,,,,,
,,,,77.2,210.5761,,,,,,,,,,
,,,,77.25,207.2317,,,,,,,,,,
,,,,77.3,203.5501,,,,,,,,,,
,,,,77.35,199.5776,,,,,,,,,,
,,,,77.4,195.3617,,,,,,,,,,
,,,,77.45,190.9508,,,,,,,,,,
,,,,77.5,186.3924,,,,,,,,,,
,,,,77.55,181.733,,,,,,,,,,
,,,,77.6,177.0168,,,,,,,,,,
,,,,77.65,172.2855,,,,,,,,,,
,,,,77.7,167.5773,,,,,,,,,,
,,,,77.75,162.927,,,,,,,,,,
,,,,77.8,158.3654,,,,,,,,,,
,,,,77.85,153.9195,,,,,,,,,,
,,,,77.9,149.612,,,,,,,,,,
,,,,77.95,145.4619,,,,,,,,,,
,,,,78,141.4843,,,,,,,,,,
,,,,78.05,137.6904,,,,,,,,,,
,,,,78.1,134.0882,,,,,,,,,,
,,,,78.15,130.6827,,,,,,,,,,
,,,,78.2,127.4757,,,,,,,,,,
,,,,78.25,124.4667,,,,,,,,,,
,,,,78.3,121.6528,,,,,,,,,,
,,,,78.35,119.0292,,,,,,,,,,
,,,,78.4,116.5895,,,,,,,,,,
,,,,78.45,114.3259,,,,,,,,,,
,,,,78.5,112.2295,,,,,,,,,,
,,,,78.55,110.2905,,,,,,,,,,
,,,,78.6,108.4987,,,,,,,,,,
,,,,78.65,106.8431,,,,,,,,,,
,,,,78.7,105.3127,,,,,,,,,,
,,,,78.75,103.8965,,,,,,,,,,
,,,,78.8,102.5833,,,,,,,,,,
,,,,78.85,101.3623,,,,,,,,,,
,,,,78.9,100.223,,,,,,,,,,
,,,,78.95,99.15509,,,,,,,,,,
,,,,79,98.14896,,,,,,,,,,
,,,,79.05,97.19537,,,,,,,,,,
,,,,79.1,96.28564,,,,,,,,,,
,,,,79.15,95.41175,,,,,,,,,,
,,,,79.2,94.56622,,,,,,,,,,
,,,,79.25,93.74223,,,,,,,,,,
,,,,79.3,92.93357,,,,,,,,,,
,,,,79.35,92.13467,,,,,,,,,,
,,,,79.4,91.34055,,,,,,,,,,
,,,,79.45,90.54684,,,,,,,,,,
,,,,79.5,89.74975,,,,,,,,,,
,,,,79.55,88.94601,,,,,,,,,,
,,,,79.6,88.13291,,,,,,,,,,
,,,,79.65,87.30821,,,,,,,,,,
,,,,79.7,86.47015,,,,,,,,,,
,,,,79.75,85.61738,,,,,,,,,,
,,,,79.8,84.74895,,,,,,,,,,
,,,,79.85,83.8643,,,,,,,,,,
,,,,79.9,82.96317,,,,,,,,,,
,,,,79.95,82.04559,,,,,,,,,,
,,,,80,81.11188,,,,,,,,,,