File: XRD of GO.csv
5,114.9639
5.1,58.69596
5.2,121.2956
5.3,39.47198
5.4,186.601
5.5,82.72534
5.6,194.5541
5.7,52.12991
5.8,48.82866
5.9,238.0262
6,213.0985
6.1,224.0882
6.2,247.7043
6.3,167.3229
6.4,36.31982
6.5,198.071
6.6,89.28561
6.7,93.33961
6.8,286.9422
6.9,176.8027
7,159.6302
7.1,258.8007
7.2,277.69
7.3,129.6741
7.4,408.1289
7.5,659.7636
7.6,304.6208
7.7,546.0764
7.8,600.8395
7.9,642.2861
8,907.1255
8.1,1232.067
8.2,1223.819
8.3,1622.426
8.4,1834.595
8.5,2333.703
8.6,3036.46
8.7,4119.574
8.8,5829.754
8.9,8510.377
9,12808.15
9.1,18013.12
9.2,21748.66
9.3,18488.14
9.4,13071.62
9.5,8679.124
9.6,6094.036
9.7,4629.731
9.8,3349.586
9.9,2406.975
10,2328.608
10.1,1681.194
10.2,1468.11
10.3,1149.398
10.4,1185.099
10.5,931.9249
10.6,793.2498
10.7,765.7834
10.8,886.2349
10.9,584.6469
11,517.7287
11.1,562.1895
11.2,531.4022
11.3,368.6754
11.4,47.25213
11.5,197.0398
11.6,331.279
11.7,289.877
11.8,152.7408
11.9,63.11127
12,117.5621
12.1,119.334
12.2,118.3342
12.3,41.13648
12.4,74.31484
12.5,151.1098
12.6,258.0954
12.7,-8.15465
12.8,-101.0663
12.9,99.26759
13,39.42099
13.1,262.6345
13.2,68.81521
13.3,224.5372
13.4,133.0409
13.5,104.2337
13.6,71.35601
13.7,164.3152
13.8,163.0184
13.9,60.70624
14,150.6193
14.1,119.3315
14.2,193.4166
14.3,156.1154
14.4,197.335
14.5,140.3159
14.6,104.9655
14.7,181.2216
14.8,119.1441
14.9,65.49029
15,163.6842
15.1,163.8163
15.2,99.31055
15.3,3.590934
15.4,86.74801
15.5,-67.79429
15.6,46.72129
15.7,97.05202
15.8,26.62181
15.9,-31.1454
16,57.17432
16.1,105.0049
16.2,-160.8964
16.3,-0.4390482
16.4,-163.5324
16.5,-40.08577
16.6,-13.34203
16.7,36.78946
16.8,-96.26738
16.9,-159.0886
17,-94.91697
17.1,86.33813
17.2,-8.566051
17.3,-112.8723
17.4,33.51012
17.5,-19.32833
17.6,-87.96369
17.7,121.028
17.8,207.7373
17.9,55.58808
18,144.6711
18.1,208.4071
18.2,123.4813
18.3,209.8429
18.4,-42.5618
18.5,226.2135
18.6,129.4483
18.7,123.7557
18.8,219.0819
18.9,158.7064
19,65.90887
19.1,83.96895
19.2,-50.50046
19.3,-97.55309
19.4,-23.90934
19.5,20.37707
19.6,101.9191
19.7,-162.6704
19.8,-20.11178
19.9,-93.79208
20,116.2349
20.1,-0.08443233
20.2,13.86272
20.3,-211.9773
20.4,-57.65832
20.5,46.76603
20.6,-88.75801
20.7,-30.95086
20.8,50.13378
20.9,-15.55785
21,21.92053
21.1,-47.48481
21.2,-0.4942722
21.3,-0.4949194
21.4,59.12618
21.5,-25.01803
21.6,53.69604
21.7,105.268
21.8,69.70805
21.9,0.3598501
22,-16.09971
22.1,-62.99372
22.2,-23.64523
22.3,-1.377339
22.4,127.1535
22.5,-58.0423
22.6,9.712012
22.7,-32.90657
22.8,200.7789
22.9,-25.88809
23,-39.56385
23.1,-113.5715
23.2,12.09925
23.3,4.125279
23.4,182.5169
23.5,-32.71574
23.6,-64.89561
23.7,-27.34583
23.8,156.6105
23.9,23.65038
24,-9.549342
24.1,57.02161
24.2,-46.62651
24.3,-90.48344
24.4,75.46107
24.5,-12.11605
24.6,-76.53788
24.7,95.53915
24.8,-79.208
24.9,12.56423
25,-9.134054
25.1,-80.96282
25.2,-59.58547
25.3,21.66778
25.4,36.13337
25.5,-56.18558
25.6,28.0474
25.7,38.8354
25.8,-20.48512
25.9,-43.24437
26,17.22743
26.1,-52.39994
26.2,-88.79003
26.3,1.393616
26.4,-68.51256
26.5,38.16124
26.6,31.41812
26.7,-18.73879
26.8,81.02694
26.9,44.05177
27,-82.99451
27.1,-6.77545
27.2,79.37872
27.3,-47.86219
27.4,48.17157
27.5,44.14981
27.6,-9.924372
27.7,-24.04784
27.8,21.7825
27.9,27.56979
28,73.31713
28.1,-47.63902
28.2,104.7044
28.3,-49.64934
28.4,32.63605
28.5,-48.43624
28.6,17.13689
28.7,29.35856
28.8,54.89856
28.9,0.4266596
29,15.94599
29.1,-58.54034
29.2,-23.02921
29.3,-14.18418
29.4,54.66455
29.5,66.85343
29.6,-47.61444
29.7,-48.73592
29.8,-46.50871
29.9,-14.26691
30,-55.34548
30.1,40.254
30.2,42.52994
30.3,28.14742
30.4,-52.89517
30.5,9.400593
30.6,-78.30022
30.7,77.33412
30.8,26.30204
30.9,-44.73139
31,-2.434443
31.1,59.85797
31.2,68.81091
31.3,-45.5772
31.4,-49.97462
31.5,18.95037
31.6,-48.8038
31.7,73.42794
31.8,-24.35601
31.9,-45.49057
32,-63.31067
32.1,-7.817895
32.2,64.31949
32.3,-16.9001
32.4,-31.47827
32.5,57.25006
32.6,-14.05003
32.7,61.28653
32.8,-43.40852
32.9,35.19656
33,-19.56648
33.1,-11.03258
33.2,40.79668
33.3,-80.74696
33.4,17.66823
33.5,52.70733
33.6,-12.29791
33.7,-57.3491
33.8,67.55219
33.9,-27.59565
34,-6.127541
34.1,-91.37841
34.2,29.98349
34.3,-35.37677
34.4,49.20589
34.5,100.3965
34.6,-98.4731
34.7,19.26208
34.8,-19.73287
34.9,-55.45953
35,55.41383
35.1,102.8856
35.2,-39.71239
35.3,-22.38183
35.4,-51.79095
35.5,42.05867
35.6,22.49875
35.7,-67.13895
35.8,19.81064
35.9,16.67978
36,56.80276
36.1,-49.8189
36.2,60.14961
36.3,-6.623541
36.4,-10.13687
36.5,-30.38887
36.6,-0.7113971
36.7,52.23038
36.8,-48.2287
36.9,27.91284
37,-36.01017
37.1,40.00377
37.2,-17.37718
37.3,-1.484875
37.4,107.6822
37.5,-26.54116
37.6,29.1799
37.7,4.846869
37.8,-26.20544
37.9,-3.975518
38,-28.46189
38.1,20.33696
38.2,19.08917
38.3,17.79624
38.4,3.126338
38.5,55.08095
38.6,-33.0051
38.7,-74.46365
38.8,20.70679
38.9,45.84105
39,0.9406313
39.1,36.00702
39.2,94.37503
39.3,62.71283
39.4,1.021927
39.5,-20.6962
39.6,47.55994
39.7,-30.87482
39.8,-32.66566
39.9,38.85558
40,-36.3096
40.1,45.17363
40.2,53.30675
40.3,-11.90874
40.4,22.86198
40.5,-15.71292
40.6,-7.631952
40.7,-26.22696
40.8,5.170224
40.9,-16.77225
41,-12.05288
41.1,-10.67018
41.2,-55.95598
41.3,-51.24213
41.4,-6.527143
41.5,8.190489
41.6,106.2456
41.7,-52.36036
41.8,-0.9591916
41.9,43.78392
42,-51.46289
42.1,9.967613
42.2,8.075184
42.3,-30.47382
42.4,-15.6797
42.5,-30.87609
42.6,3.936704
42.7,-4.574955
42.8,90.25529
42.9,61.76049
43,-63.39301
43.1,-78.53883
43.2,49.65604
43.3,4.524647
43.4,-3.93332
43.5,-39.05149
43.6,-0.8301791
43.7,-35.93634
43.8,52.29638
43.9,-12.79899
44,38.77725
44.1,30.35814
44.2,45.2767
44.3,-59.80071
44.4,15.12562
44.5,-29.94462
44.6,28.3216
44.7,-13.40936
44.8,-11.80445
44.9,3.135999
45,24.74504
45.1,6.355685
45.2,27.96765
45.3,-50.41938
45.4,61.19429
45.5,-40.52497
45.6,14.42254
45.7,52.70318
45.8,34.31664
45.9,22.59597
46,14.20751
46.1,32.48431
46.2,-32.57394
46.3,-37.63422
46.4,-6.030152
46.5,42.23796
46.6,7.169805
46.7,-44.56825
46.8,0.3568338
46.9,25.27808
47,-36.47149
47.1,11.77451
47.2,-13.31758
47.3,-58.41471
47.4,59.81613
47.5,-15.29201
47.6,19.59389
47.7,14.47354
47.8,2.679948
47.9,74.21283
48,19.07187
48.1,47.25678
48.2,25.43391
48.3,-33.0637
48.4,31.76364
48.5,23.24897
48.6,71.39198
48.7,-97.14098
48.8,24.31648
48.9,-4.235949
49,-12.79858
49.1,55.29496
49.2,-23.28898
49.3,18.11598
49.4,32.84287
49.5,37.55804
49.6,-24.40546
49.7,33.61872
49.8,-5.036391
49.9,32.96225
50,10.94766
50.1,62.25287
50.2,56.87759
50.3,-15.17842
50.4,46.08492
50.5,-5.998904
50.6,35.23692
50.7,39.79253
50.8,17.66809
50.9,-7.80292
51,6.712979
51.1,47.8826
51.2,-4.293897
51.3,10.18363
51.4,-8.684675
51.5,-44.23199
51.6,63.54184
51.7,54.63695
51.8,29.0535
51.9,16.79163
52,-5.481832
52.1,38.89992
52.2,9.937042
52.3,60.96301
52.4,-51.35535
52.5,12.98209
52.6,60.64217
52.7,-5.041639
52.8,29.26414
52.9,-6.440326
53,-25.48824
53.1,-37.87944
53.2,-23.61379
53.3,-2.691126
53.4,24.88869
53.5,-34.20752
53.6,0.02039289
53.7,-12.42743
53.8,-4.884159
53.9,2.650344
54,36.8429
54.1,27.69365
54.2,45.20275
54.3,-17.29631
54.4,-3.136729
54.5,4.348316
54.6,-14.84103
54.7,35.96206
54.8,13.42439
54.9,54.21278
55,18.32738
55.1,39.10167
55.2,16.5358
55.3,10.62993
55.4,34.71752
55.5,-4.534599
55.6,52.87372
55.7,53.60929
55.8,-22.32773
55.9,-58.27054
56,-37.55231
56.1,-40.1729
56.2,-9.465497
56.3,-32.09661
56.4,-38.06609
56.5,15.95954
56.6,-20.01956
56.7,-26.00326
56.8,-38.65806
56.9,92.01618
57,6.019618
57.1,10.01906
57.2,47.34799
57.3,-48.66011
57.4,11.99492
57.5,9.313217
57.6,19.9616
57.7,-12.72645
57.8,1.249223
57.9,-48.11124
58,22.52565
58.1,3.160037
58.2,-22.87459
58.3,-42.24476
58.4,11.71635
58.5,-20.99111
58.6,-7.033655
58.7,10.25553
58.8,10.87658
58.9,1.49633
59,-1.218413
59.1,-17.2675
59.2,23.34922
59.3,0.6318959
59.4,-45.41932
59.5,-11.47096
59.6,19.14381
59.7,16.42513
59.8,10.37316
59.9,-9.011971
60,18.2699
60.1,38.88559
60.2,-37.16476
60.3,6.785674
60.4,-25.92963
60.5,-38.64386
60.6,18.64314
60.7,2.598185
60.8,-10.11191
60.9,-2.820334
61,21.13973
61.1,21.76844
61.2,42.39927
61.3,-23.63429
61.4,20.33444
61.5,14.30542
61.6,-25.05476
61.7,-1.079502
61.8,9.564454
61.9,33.54371
62,-15.80848
62.1,-31.8255
62.2,2.159224
62.3,26.14564
62.4,23.467
62.5,-12.54342
62.6,34.78098
62.7,32.10678
62.8,29.43391
62.9,36.76232
63,44.09193
63.1,-8.577329
63.2,-14.57886
63.3,52.75393
63.4,20.08765
63.5,0.7555481
63.6,31.42423
63.7,-7.906367
63.8,-20.56966
63.9,-29.89904
64,-59.22791
64.1,-41.88968
64.2,-44.55109
64.3,-20.54553
64.4,-26.53974
64.5,-39.20046
64.6,-1.861096
64.7,-1.188374
64.8,106.151
64.9,-6.509817
65,-59.17079
65.1,-68.49868
65.2,-41.16024
65.3,-13.82219
65.4,3.515393
65.5,24.18577
65.6,-45.14445
65.7,-24.47536
65.8,-50.47367
65.9,-23.13946
66,-9.13947
66.1,18.1929
66.2,32.19092
66.3,29.52118
66.4,-3.149725
66.5,10.84481
66.6,24.83804
66.7,8.829908
66.8,59.487
66.9,-19.85741
67,0.796594
67.1,1.448954
67.2,52.0996
67.3,29.41512
67.4,43.39546
67.5,34.04054
67.6,-1.983045
67.7,38.65797
67.8,39.29686
67.9,56.60022
68,-6.098707
68.1,94.53336
68.2,81.82969
68.3,12.45687
68.4,19.74817
68.5,-2.963153
68.6,34.32284
68.7,4.939401
68.8,-14.44686
68.9,-50.50269
69,16.77185
69.1,20.71002
69.2,-22.02158
69.3,-41.42302
69.4,-0.8277081
69.5,-6.902375
69.6,17.01958
69.7,10.93807
69.8,4.853048
69.9,-4.568902
70,-23.99451
70.1,-10.09052
70.2,-19.52366
70.3,31.03933
70.4,-5.068283
70.5,-47.84657
70.6,-23.96227
70.7,-10.08212
70.8,53.79382
70.9,-2.334533
71,4.866095
71.1,-21.27103
71.2,-10.74599
71.3,43.10782
71.4,-19.70967
71.5,-32.53186
71.6,-8.692152
71.7,-28.19062
71.8,8.972664
71.9,-13.86903
72,-3.382441
72.1,27.09903
72.2,-12.42469
72.3,1.379667
72.4,28.51203
72.5,8.972328
72.6,22.76049
72.7,63.20979
72.8,-29.67985
72.9,47.42483
73,27.8571
73.1,41.61689
73.2,52.03747
73.3,-7.547907
73.4,-17.13931
73.5,3.263204
73.6,-16.34045
73.7,30.71634
73.8,-65.56651
73.9,18.14427
74,-24.81805
74.1,38.87978
74.2,19.23771
74.3,6.255655
74.4,-16.73312
74.5,-6.39534
74.6,20.60225
74.7,0.9262422
74.8,44.57658
74.9,31.55318
75,5.18932
75.1,-4.515078
75.2,-10.89341
75.3,46.05424
75.4,-20.33885
75.5,16.59392
75.6,-13.14754
75.7,20.43673
75.8,-15.9867
75.9,14.24878
76,-38.8569
76.1,-45.30381
76.2,14.90799
76.3,-24.88826
76.4,11.97406
76.5,8.828198
76.6,-17.65924
76.7,-34.15499
76.8,6.007548
76.9,-3.838371
77,-10.35948
77.1,-10.22251
77.2,13.23913
77.3,16.69204
77.4,0.1361523
77.5,20.23806
77.6,-9.66897
77.7,-2.918342
77.8,3.823208
77.9,13.88894
78,40.61213
78.1,-9.340633
78.2,50.69725
78.3,-15.94097
78.4,7.411327
78.5,-22.57928
78.6,34.08715
78.7,7.410548
78.8,4.057504
78.9,17.36128
79,23.98849
79.1,-26.06096
79.2,-26.12045
79.3,7.143272
79.4,-6.269863
79.5,10.30674
79.6,26.87302
79.7,-49.90443
79.8,13.30766
79.9,13.17587
80,-46.96652